"rt","responses","trial_type","trial_index","time_elapsed","internal_node_id","condition","language","subject","browser_info","participant_number","value","view_history","presentation_start_time","id","text","response","answer","correct","study","activation","alpha","mu","kappa","a","b","types","block","reading_time","estimated_rt","transcribed speech signal response","confidence","full results"
"9298","{""Q0"":""""}","survey-text","0","9303","0.0-0.0","4","dutch","zad56wz01cb4u61","{""user_agent"":""Mozilla/5.0 (Macintosh; Intel Mac OS X 10_15_7) AppleWebKit/537.36 (KHTML, like Gecko) Chrome/94.0.4606.61 Safari/537.36"",""on_chrome"":true,""on_mobile"":false,""language"":""nl-NL"",""screen_resolution"":[1440,900],""platform"":""MacIntel"",""timezone"":""Europe/Amsterdam""}","","","","","","","","","","","","","","","","","","","","","","",""
"","","call-function","1","9310","0.0-1.0","4","dutch","zad56wz01cb4u61","{""user_agent"":""Mozilla/5.0 (Macintosh; Intel Mac OS X 10_15_7) AppleWebKit/537.36 (KHTML, like Gecko) Chrome/94.0.4606.61 Safari/537.36"",""on_chrome"":true,""on_mobile"":false,""language"":""nl-NL"",""screen_resolution"":[1440,900],""platform"":""MacIntel"",""timezone"":""Europe/Amsterdam""}","","","","","","","","","","","","","","","","","","","","","","",""
"300","","instructions","2","9610","0.0-2.0","4","dutch","zad56wz01cb4u61","{""user_agent"":""Mozilla/5.0 (Macintosh; Intel Mac OS X 10_15_7) AppleWebKit/537.36 (KHTML, like Gecko) Chrome/94.0.4606.61 Safari/537.36"",""on_chrome"":true,""on_mobile"":false,""language"":""nl-NL"",""screen_resolution"":[1440,900],""platform"":""MacIntel"",""timezone"":""Europe/Amsterdam""}","","","[{""page_index"":0,""viewing_time"":300}]","","","","","","","","","","","","","","","","","","","",""
"","","call-function","3","9611","0.0-3.0","4","dutch","zad56wz01cb4u61","{""user_agent"":""Mozilla/5.0 (Macintosh; Intel Mac OS X 10_15_7) AppleWebKit/537.36 (KHTML, like Gecko) Chrome/94.0.4606.61 Safari/537.36"",""on_chrome"":true,""on_mobile"":false,""language"":""nl-NL"",""screen_resolution"":[1440,900],""platform"":""MacIntel"",""timezone"":""Europe/Amsterdam""}","","","","","","","","","","","","","","","","","","","","","","",""
"1066","","html-speech-API-response","4","12908","0.0-4.0-0.0","4","dutch","zad56wz01cb4u61","{""user_agent"":""Mozilla/5.0 (Macintosh; Intel Mac OS X 10_15_7) AppleWebKit/537.36 (KHTML, like Gecko) Chrome/94.0.4606.61 Safari/537.36"",""on_chrome"":true,""on_mobile"":false,""language"":""nl-NL"",""screen_resolution"":[1440,900],""platform"":""MacIntel"",""timezone"":""Europe/Amsterdam""}","","","","1632986416780","1","","","dog","null","true","-Infinity","0.35","0.35","1","3","0.2","filler","F","300","Infinity","dog","0.8699672818183899","[object SpeechRecognitionResultList]"
"1156","","html-speech-API-response","5","16387","0.0-4.1-0.1","4","dutch","zad56wz01cb4u61","{""user_agent"":""Mozilla/5.0 (Macintosh; Intel Mac OS X 10_15_7) AppleWebKit/537.36 (KHTML, like Gecko) Chrome/94.0.4606.61 Safari/537.36"",""on_chrome"":true,""on_mobile"":false,""language"":""nl-NL"",""screen_resolution"":[1440,900],""platform"":""MacIntel"",""timezone"":""Europe/Amsterdam""}","","","","1632986420077","1","","","dog","null","false","-1.0173197294649095","0.35","0.35","1","3","0.2","filler","F","300","3065.7718039646475","dog","0.8707082867622375","[object SpeechRecognitionResultList]"
"1153","","html-speech-API-response","6","19858","0.0-4.2-0.2","4","dutch","zad56wz01cb4u61","{""user_agent"":""Mozilla/5.0 (Macintosh; Intel Mac OS X 10_15_7) AppleWebKit/537.36 (KHTML, like Gecko) Chrome/94.0.4606.61 Safari/537.36"",""on_chrome"":true,""on_mobile"":false,""language"":""nl-NL"",""screen_resolution"":[1440,900],""platform"":""MacIntel"",""timezone"":""Europe/Amsterdam""}","","","","1632986423557","1","","","dog","null","false","-1.0173197294649095","0.35","0.35","1","3","0.2","filler","F","300","3065.7718039646475","dog","0.870772659778595","[object SpeechRecognitionResultList]"
"1157","","html-speech-API-response","7","23459","0.0-4.3-0.3","4","dutch","zad56wz01cb4u61","{""user_agent"":""Mozilla/5.0 (Macintosh; Intel Mac OS X 10_15_7) AppleWebKit/537.36 (KHTML, like Gecko) Chrome/94.0.4606.61 Safari/537.36"",""on_chrome"":true,""on_mobile"":false,""language"":""nl-NL"",""screen_resolution"":[1440,900],""platform"":""MacIntel"",""timezone"":""Europe/Amsterdam""}","","","","1632986427028","2","","","pearl","null","true","-Infinity","0.35","0.35","1","3","0.2","filler","F","300","Infinity","feral","0.21757148206233978","[object SpeechRecognitionResultList]"
"1063","","html-speech-API-response","8","26851","0.0-4.4-0.4","4","dutch","zad56wz01cb4u61","{""user_agent"":""Mozilla/5.0 (Macintosh; Intel Mac OS X 10_15_7) AppleWebKit/537.36 (KHTML, like Gecko) Chrome/94.0.4606.61 Safari/537.36"",""on_chrome"":true,""on_mobile"":false,""language"":""nl-NL"",""screen_resolution"":[1440,900],""platform"":""MacIntel"",""timezone"":""Europe/Amsterdam""}","","","","1632986430628","2","","","pearl","null","false","-1.0230689168196019","0.35","0.35","1","3","0.2","filler","F","300","3081.7185407104503","virile","0.7981447577476501","[object SpeechRecognitionResultList]"
"1247","","html-speech-API-response","9","30517","0.0-4.5-0.5","4","dutch","zad56wz01cb4u61","{""user_agent"":""Mozilla/5.0 (Macintosh; Intel Mac OS X 10_15_7) AppleWebKit/537.36 (KHTML, like Gecko) Chrome/94.0.4606.61 Safari/537.36"",""on_chrome"":true,""on_mobile"":false,""language"":""nl-NL"",""screen_resolution"":[1440,900],""platform"":""MacIntel"",""timezone"":""Europe/Amsterdam""}","","","","1632986434020","2","","","pearl","null","false","-1.0230689168196019","0.35","0.35","1","3","0.2","filler","F","300","3081.7185407104503","pearl","0.6517779231071472","[object SpeechRecognitionResultList]"
"1249","","html-speech-API-response","10","34077","0.0-4.6-0.6","4","dutch","zad56wz01cb4u61","{""user_agent"":""Mozilla/5.0 (Macintosh; Intel Mac OS X 10_15_7) AppleWebKit/537.36 (KHTML, like Gecko) Chrome/94.0.4606.61 Safari/537.36"",""on_chrome"":true,""on_mobile"":false,""language"":""nl-NL"",""screen_resolution"":[1440,900],""platform"":""MacIntel"",""timezone"":""Europe/Amsterdam""}","","","","1632986437687","3","","","cloud","null","true","-Infinity","0.35","0.35","1","3","0.2","filler","F","300","Infinity","cloud","0.836807370185852","[object SpeechRecognitionResultList]"
"1063","","html-speech-API-response","11","37516","0.0-4.7-0.7","4","dutch","zad56wz01cb4u61","{""user_agent"":""Mozilla/5.0 (Macintosh; Intel Mac OS X 10_15_7) AppleWebKit/537.36 (KHTML, like Gecko) Chrome/94.0.4606.61 Safari/537.36"",""on_chrome"":true,""on_mobile"":false,""language"":""nl-NL"",""screen_resolution"":[1440,900],""platform"":""MacIntel"",""timezone"":""Europe/Amsterdam""}","","","","1632986441246","3","","","cloud","null","false","-Infinity","0.35","0.35","1","3","0.2","filler","F","300","Infinity","cloud","0.8383665680885315","[object SpeechRecognitionResultList]"
"1061","","html-speech-API-response","12","40966","0.0-4.8-0.8","4","dutch","zad56wz01cb4u61","{""user_agent"":""Mozilla/5.0 (Macintosh; Intel Mac OS X 10_15_7) AppleWebKit/537.36 (KHTML, like Gecko) Chrome/94.0.4606.61 Safari/537.36"",""on_chrome"":true,""on_mobile"":false,""language"":""nl-NL"",""screen_resolution"":[1440,900],""platform"":""MacIntel"",""timezone"":""Europe/Amsterdam""}","","","","1632986444685","3","","","cloud","null","false","-Infinity","0.35","0.35","1","3","0.2","filler","F","300","Infinity","cloud","0.8371168971061707","[object SpeechRecognitionResultList]"
"966","","html-speech-API-response","13","44326","0.0-4.9-0.9","4","dutch","zad56wz01cb4u61","{""user_agent"":""Mozilla/5.0 (Macintosh; Intel Mac OS X 10_15_7) AppleWebKit/537.36 (KHTML, like Gecko) Chrome/94.0.4606.61 Safari/537.36"",""on_chrome"":true,""on_mobile"":false,""language"":""nl-NL"",""screen_resolution"":[1440,900],""platform"":""MacIntel"",""timezone"":""Europe/Amsterdam""}","","","","1632986448136","4","","","economy","null","true","-Infinity","0.35","0.35","1","3","0.2","filler","F","300","Infinity","economy","0.9546766877174377","[object SpeechRecognitionResultList]"
"782","","html-speech-API-response","14","47635","0.0-4.10-0.10","4","dutch","zad56wz01cb4u61","{""user_agent"":""Mozilla/5.0 (Macintosh; Intel Mac OS X 10_15_7) AppleWebKit/537.36 (KHTML, like Gecko) Chrome/94.0.4606.61 Safari/537.36"",""on_chrome"":true,""on_mobile"":false,""language"":""nl-NL"",""screen_resolution"":[1440,900],""platform"":""MacIntel"",""timezone"":""Europe/Amsterdam""}","","","","1632986451496","4","","","economy","null","false","-Infinity","0.35","0.35","1","3","0.2","filler","F","300","Infinity","economy","0.9546766877174377","[object SpeechRecognitionResultList]"
"1061","","html-speech-API-response","15","51184","0.0-4.11-0.11","4","dutch","zad56wz01cb4u61","{""user_agent"":""Mozilla/5.0 (Macintosh; Intel Mac OS X 10_15_7) AppleWebKit/537.36 (KHTML, like Gecko) Chrome/94.0.4606.61 Safari/537.36"",""on_chrome"":true,""on_mobile"":false,""language"":""nl-NL"",""screen_resolution"":[1440,900],""platform"":""MacIntel"",""timezone"":""Europe/Amsterdam""}","","","","1632986454805","4","","","economy","null","false","-Infinity","0.35","0.35","1","3","0.2","filler","F","300","Infinity","economy","0.9156399965286255","[object SpeechRecognitionResultList]"
"970","","html-speech-API-response","16","54663","0.0-4.12-0.12","4","dutch","zad56wz01cb4u61","{""user_agent"":""Mozilla/5.0 (Macintosh; Intel Mac OS X 10_15_7) AppleWebKit/537.36 (KHTML, like Gecko) Chrome/94.0.4606.61 Safari/537.36"",""on_chrome"":true,""on_mobile"":false,""language"":""nl-NL"",""screen_resolution"":[1440,900],""platform"":""MacIntel"",""timezone"":""Europe/Amsterdam""}","","","","1632986458354","5","","","knee","null","true","","","0.35","1","3","0.2","filler","F","","","knee","0.3799901008605957","[object SpeechRecognitionResultList]"
"874","","html-speech-API-response","17","58149","0.0-4.13-0.13","4","dutch","zad56wz01cb4u61","{""user_agent"":""Mozilla/5.0 (Macintosh; Intel Mac OS X 10_15_7) AppleWebKit/537.36 (KHTML, like Gecko) Chrome/94.0.4606.61 Safari/537.36"",""on_chrome"":true,""on_mobile"":false,""language"":""nl-NL"",""screen_resolution"":[1440,900],""platform"":""MacIntel"",""timezone"":""Europe/Amsterdam""}","","","","1632986461833","5","","","knee","null","false","","","0.35","1","3","0.2","filler","F","","","knee","0.3658545911312103","[object SpeechRecognitionResultList]"
"1248","","html-speech-API-response","18","62116","0.0-4.14-0.14","4","dutch","zad56wz01cb4u61","{""user_agent"":""Mozilla/5.0 (Macintosh; Intel Mac OS X 10_15_7) AppleWebKit/537.36 (KHTML, like Gecko) Chrome/94.0.4606.61 Safari/537.36"",""on_chrome"":true,""on_mobile"":false,""language"":""nl-NL"",""screen_resolution"":[1440,900],""platform"":""MacIntel"",""timezone"":""Europe/Amsterdam""}","","","","1632986465318","5","","","knee","null","false","","","0.35","1","3","0.2","filler","F","","","knee","0.3820006847381592","[object SpeechRecognitionResultList]"
"1342","","html-speech-API-response","19","65824","0.0-4.15-0.15","4","dutch","zad56wz01cb4u61","{""user_agent"":""Mozilla/5.0 (Macintosh; Intel Mac OS X 10_15_7) AppleWebKit/537.36 (KHTML, like Gecko) Chrome/94.0.4606.61 Safari/537.36"",""on_chrome"":true,""on_mobile"":false,""language"":""nl-NL"",""screen_resolution"":[1440,900],""platform"":""MacIntel"",""timezone"":""Europe/Amsterdam""}","","","","1632986469287","6","","","egg","null","true","","","0.35","1","3","0.2","filler","F","","","egg","0.8891780376434326","[object SpeechRecognitionResultList]"
"1155","","html-speech-API-response","20","69333","0.0-4.16-0.16","4","dutch","zad56wz01cb4u61","{""user_agent"":""Mozilla/5.0 (Macintosh; Intel Mac OS X 10_15_7) AppleWebKit/537.36 (KHTML, like Gecko) Chrome/94.0.4606.61 Safari/537.36"",""on_chrome"":true,""on_mobile"":false,""language"":""nl-NL"",""screen_resolution"":[1440,900],""platform"":""MacIntel"",""timezone"":""Europe/Amsterdam""}","","","","1632986472994","6","","","egg","null","false","","","0.35","1","3","0.2","filler","F","","","egg","0.889178454875946","[object SpeechRecognitionResultList]"
"1620","","html-speech-API-response","21","73312","0.0-4.17-0.17","4","dutch","zad56wz01cb4u61","{""user_agent"":""Mozilla/5.0 (Macintosh; Intel Mac OS X 10_15_7) AppleWebKit/537.36 (KHTML, like Gecko) Chrome/94.0.4606.61 Safari/537.36"",""on_chrome"":true,""on_mobile"":false,""language"":""nl-NL"",""screen_resolution"":[1440,900],""platform"":""MacIntel"",""timezone"":""Europe/Amsterdam""}","","","","1632986476503","6","","","egg","null","false","","","0.35","1","3","0.2","filler","F","","","egg","0.8737040758132935","[object SpeechRecognitionResultList]"
"1158","","html-speech-API-response","22","76874","0.0-4.18-0.18","4","dutch","zad56wz01cb4u61","{""user_agent"":""Mozilla/5.0 (Macintosh; Intel Mac OS X 10_15_7) AppleWebKit/537.36 (KHTML, like Gecko) Chrome/94.0.4606.61 Safari/537.36"",""on_chrome"":true,""on_mobile"":false,""language"":""nl-NL"",""screen_resolution"":[1440,900],""platform"":""MacIntel"",""timezone"":""Europe/Amsterdam""}","","","","1632986480481","7","","","beer","null","true","","","0.35","1","3","0.2","filler","F","","","bear","0.8140369653701782","[object SpeechRecognitionResultList]"
"966","","html-speech-API-response","23","80447","0.0-4.19-0.19","4","dutch","zad56wz01cb4u61","{""user_agent"":""Mozilla/5.0 (Macintosh; Intel Mac OS X 10_15_7) AppleWebKit/537.36 (KHTML, like Gecko) Chrome/94.0.4606.61 Safari/537.36"",""on_chrome"":true,""on_mobile"":false,""language"":""nl-NL"",""screen_resolution"":[1440,900],""platform"":""MacIntel"",""timezone"":""Europe/Amsterdam""}","","","","1632986484043","7","","","beer","null","false","","","0.35","1","3","0.2","filler","F","","","beer","0.8409336805343628","[object SpeechRecognitionResultList]"
"968","","html-speech-API-response","24","84050","0.0-4.20-0.20","4","dutch","zad56wz01cb4u61","{""user_agent"":""Mozilla/5.0 (Macintosh; Intel Mac OS X 10_15_7) AppleWebKit/537.36 (KHTML, like Gecko) Chrome/94.0.4606.61 Safari/537.36"",""on_chrome"":true,""on_mobile"":false,""language"":""nl-NL"",""screen_resolution"":[1440,900],""platform"":""MacIntel"",""timezone"":""Europe/Amsterdam""}","","","","1632986487616","7","","","beer","null","false","","","0.35","1","3","0.2","filler","F","","","bear","0.7510738968849182","[object SpeechRecognitionResultList]"
"1188","","html-speech-API-response","25","87837","0.0-4.21-0.21","4","dutch","zad56wz01cb4u61","{""user_agent"":""Mozilla/5.0 (Macintosh; Intel Mac OS X 10_15_7) AppleWebKit/537.36 (KHTML, like Gecko) Chrome/94.0.4606.61 Safari/537.36"",""on_chrome"":true,""on_mobile"":false,""language"":""nl-NL"",""screen_resolution"":[1440,900],""platform"":""MacIntel"",""timezone"":""Europe/Amsterdam""}","","","","1632986491221","8","","","mattress","null","true","","","0.35","1","3","0.2","filler","F","","","mattress","0.9546766877174377","[object SpeechRecognitionResultList]"
"969","","html-speech-API-response","26","91214","0.0-4.22-0.22","4","dutch","zad56wz01cb4u61","{""user_agent"":""Mozilla/5.0 (Macintosh; Intel Mac OS X 10_15_7) AppleWebKit/537.36 (KHTML, like Gecko) Chrome/94.0.4606.61 Safari/537.36"",""on_chrome"":true,""on_mobile"":false,""language"":""nl-NL"",""screen_resolution"":[1440,900],""platform"":""MacIntel"",""timezone"":""Europe/Amsterdam""}","","","","1632986495007","8","","","mattress","null","false","","","0.35","1","3","0.2","filler","F","","","mattress","0.9546766877174377","[object SpeechRecognitionResultList]"
"1062","","html-speech-API-response","27","94885","0.0-4.23-0.23","4","dutch","zad56wz01cb4u61","{""user_agent"":""Mozilla/5.0 (Macintosh; Intel Mac OS X 10_15_7) AppleWebKit/537.36 (KHTML, like Gecko) Chrome/94.0.4606.61 Safari/537.36"",""on_chrome"":true,""on_mobile"":false,""language"":""nl-NL"",""screen_resolution"":[1440,900],""platform"":""MacIntel"",""timezone"":""Europe/Amsterdam""}","","","","1632986498383","8","","","mattress","null","false","","","0.35","1","3","0.2","filler","F","","","mattress","0.9546766877174377","[object SpeechRecognitionResultList]"
"970","","html-speech-API-response","28","98370","0.0-4.24-0.24","4","dutch","zad56wz01cb4u61","{""user_agent"":""Mozilla/5.0 (Macintosh; Intel Mac OS X 10_15_7) AppleWebKit/537.36 (KHTML, like Gecko) Chrome/94.0.4606.61 Safari/537.36"",""on_chrome"":true,""on_mobile"":false,""language"":""nl-NL"",""screen_resolution"":[1440,900],""platform"":""MacIntel"",""timezone"":""Europe/Amsterdam""}","","","","1632986502055","9","","","broom","null","true","","","0.35","1","3","0.2","filler","F","","","broom","0.920236349105835","[object SpeechRecognitionResultList]"
"968","","html-speech-API-response","29","101727","0.0-4.25-0.25","4","dutch","zad56wz01cb4u61","{""user_agent"":""Mozilla/5.0 (Macintosh; Intel Mac OS X 10_15_7) AppleWebKit/537.36 (KHTML, like Gecko) Chrome/94.0.4606.61 Safari/537.36"",""on_chrome"":true,""on_mobile"":false,""language"":""nl-NL"",""screen_resolution"":[1440,900],""platform"":""MacIntel"",""timezone"":""Europe/Amsterdam""}","","","","1632986505539","9","","","broom","null","false","","","0.35","1","3","0.2","filler","F","","","broom","0.9202225804328918","[object SpeechRecognitionResultList]"
"874","","html-speech-API-response","30","105160","0.0-4.26-0.26","4","dutch","zad56wz01cb4u61","{""user_agent"":""Mozilla/5.0 (Macintosh; Intel Mac OS X 10_15_7) AppleWebKit/537.36 (KHTML, like Gecko) Chrome/94.0.4606.61 Safari/537.36"",""on_chrome"":true,""on_mobile"":false,""language"":""nl-NL"",""screen_resolution"":[1440,900],""platform"":""MacIntel"",""timezone"":""Europe/Amsterdam""}","","","","1632986508896","9","","","broom","null","false","","","0.35","1","3","0.2","filler","F","","","broom","0.9202225208282471","[object SpeechRecognitionResultList]"
"1063","","html-speech-API-response","31","108642","0.0-4.27-0.27","4","dutch","zad56wz01cb4u61","{""user_agent"":""Mozilla/5.0 (Macintosh; Intel Mac OS X 10_15_7) AppleWebKit/537.36 (KHTML, like Gecko) Chrome/94.0.4606.61 Safari/537.36"",""on_chrome"":true,""on_mobile"":false,""language"":""nl-NL"",""screen_resolution"":[1440,900],""platform"":""MacIntel"",""timezone"":""Europe/Amsterdam""}","","","","1632986512329","10","","","doctor","null","true","","","0.35","1","3","0.2","filler","F","","","doctor","0.7776325941085815","[object SpeechRecognitionResultList]"
"970","","html-speech-API-response","32","111914","0.0-4.28-0.28","4","dutch","zad56wz01cb4u61","{""user_agent"":""Mozilla/5.0 (Macintosh; Intel Mac OS X 10_15_7) AppleWebKit/537.36 (KHTML, like Gecko) Chrome/94.0.4606.61 Safari/537.36"",""on_chrome"":true,""on_mobile"":false,""language"":""nl-NL"",""screen_resolution"":[1440,900],""platform"":""MacIntel"",""timezone"":""Europe/Amsterdam""}","","","","1632986515814","10","","","doctor","null","false","","","0.35","1","3","0.2","filler","F","","","doctor","0.7776172757148743","[object SpeechRecognitionResultList]"
"1152","","html-speech-API-response","33","115456","0.0-4.29-0.29","4","dutch","zad56wz01cb4u61","{""user_agent"":""Mozilla/5.0 (Macintosh; Intel Mac OS X 10_15_7) AppleWebKit/537.36 (KHTML, like Gecko) Chrome/94.0.4606.61 Safari/537.36"",""on_chrome"":true,""on_mobile"":false,""language"":""nl-NL"",""screen_resolution"":[1440,900],""platform"":""MacIntel"",""timezone"":""Europe/Amsterdam""}","","","","1632986519086","10","","","doctor","null","false","","","0.35","1","3","0.2","filler","F","","","doctor","0.7776798605918884","[object SpeechRecognitionResultList]"
"1158","","html-speech-API-response","34","119040","0.0-4.30-0.30","4","dutch","zad56wz01cb4u61","{""user_agent"":""Mozilla/5.0 (Macintosh; Intel Mac OS X 10_15_7) AppleWebKit/537.36 (KHTML, like Gecko) Chrome/94.0.4606.61 Safari/537.36"",""on_chrome"":true,""on_mobile"":false,""language"":""nl-NL"",""screen_resolution"":[1440,900],""platform"":""MacIntel"",""timezone"":""Europe/Amsterdam""}","","","","1632986522625","11","","","maggot","null","true","","","0.35","1","3","0.2","filler","F","","","Meggitt","0.9546766877174377","[object SpeechRecognitionResultList]"
"1061","","html-speech-API-response","35","122396","0.0-4.31-0.31","4","dutch","zad56wz01cb4u61","{""user_agent"":""Mozilla/5.0 (Macintosh; Intel Mac OS X 10_15_7) AppleWebKit/537.36 (KHTML, like Gecko) Chrome/94.0.4606.61 Safari/537.36"",""on_chrome"":true,""on_mobile"":false,""language"":""nl-NL"",""screen_resolution"":[1440,900],""platform"":""MacIntel"",""timezone"":""Europe/Amsterdam""}","","","","1632986526209","11","","","maggot","null","false","","","0.35","1","3","0.2","filler","F","","","Meggitt","0.9546766877174377","[object SpeechRecognitionResultList]"
"969","","html-speech-API-response","36","125685","0.0-4.32-0.32","4","dutch","zad56wz01cb4u61","{""user_agent"":""Mozilla/5.0 (Macintosh; Intel Mac OS X 10_15_7) AppleWebKit/537.36 (KHTML, like Gecko) Chrome/94.0.4606.61 Safari/537.36"",""on_chrome"":true,""on_mobile"":false,""language"":""nl-NL"",""screen_resolution"":[1440,900],""platform"":""MacIntel"",""timezone"":""Europe/Amsterdam""}","","","","1632986529565","11","","","maggot","null","false","","","0.35","1","3","0.2","filler","F","","","Meggitt","0.9546766877174377","[object SpeechRecognitionResultList]"
"1527","","html-speech-API-response","37","129675","0.0-4.33-0.33","4","dutch","zad56wz01cb4u61","{""user_agent"":""Mozilla/5.0 (Macintosh; Intel Mac OS X 10_15_7) AppleWebKit/537.36 (KHTML, like Gecko) Chrome/94.0.4606.61 Safari/537.36"",""on_chrome"":true,""on_mobile"":false,""language"":""nl-NL"",""screen_resolution"":[1440,900],""platform"":""MacIntel"",""timezone"":""Europe/Amsterdam""}","","","","1632986532854","12","","","bucket","null","true","","","0.35","1","3","0.2","filler","F","","","buckets","0.9546766877174377","[object SpeechRecognitionResultList]"
"970","","html-speech-API-response","38","133304","0.0-4.34-0.34","4","dutch","zad56wz01cb4u61","{""user_agent"":""Mozilla/5.0 (Macintosh; Intel Mac OS X 10_15_7) AppleWebKit/537.36 (KHTML, like Gecko) Chrome/94.0.4606.61 Safari/537.36"",""on_chrome"":true,""on_mobile"":false,""language"":""nl-NL"",""screen_resolution"":[1440,900],""platform"":""MacIntel"",""timezone"":""Europe/Amsterdam""}","","","","1632986536844","12","","","bucket","null","false","","","0.35","1","3","0.2","filler","F","","","bucket","0.9546766877174377","[object SpeechRecognitionResultList]"
"1246","","html-speech-API-response","39","136877","0.0-4.35-0.35","4","dutch","zad56wz01cb4u61","{""user_agent"":""Mozilla/5.0 (Macintosh; Intel Mac OS X 10_15_7) AppleWebKit/537.36 (KHTML, like Gecko) Chrome/94.0.4606.61 Safari/537.36"",""on_chrome"":true,""on_mobile"":false,""language"":""nl-NL"",""screen_resolution"":[1440,900],""platform"":""MacIntel"",""timezone"":""Europe/Amsterdam""}","","","","1632986540473","12","","","bucket","null","false","","","0.35","1","3","0.2","filler","F","","","bucket","0.9546766877174377","[object SpeechRecognitionResultList]"
"1153","","html-speech-API-response","40","140580","0.0-4.36-0.36","4","dutch","zad56wz01cb4u61","{""user_agent"":""Mozilla/5.0 (Macintosh; Intel Mac OS X 10_15_7) AppleWebKit/537.36 (KHTML, like Gecko) Chrome/94.0.4606.61 Safari/537.36"",""on_chrome"":true,""on_mobile"":false,""language"":""nl-NL"",""screen_resolution"":[1440,900],""platform"":""MacIntel"",""timezone"":""Europe/Amsterdam""}","","","","1632986544051","13","","","tomato","null","true","","","0.35","1","3","0.2","filler","F","","","tomato","0.9546766877174377","[object SpeechRecognitionResultList]"
"1153","","html-speech-API-response","41","144246","0.0-4.37-0.37","4","dutch","zad56wz01cb4u61","{""user_agent"":""Mozilla/5.0 (Macintosh; Intel Mac OS X 10_15_7) AppleWebKit/537.36 (KHTML, like Gecko) Chrome/94.0.4606.61 Safari/537.36"",""on_chrome"":true,""on_mobile"":false,""language"":""nl-NL"",""screen_resolution"":[1440,900],""platform"":""MacIntel"",""timezone"":""Europe/Amsterdam""}","","","","1632986547751","13","","","tomato","null","false","","","0.35","1","3","0.2","filler","F","","","tomato","0.9546766877174377","[object SpeechRecognitionResultList]"
"2083","","html-speech-API-response","42","148747","0.0-4.38-0.38","4","dutch","zad56wz01cb4u61","{""user_agent"":""Mozilla/5.0 (Macintosh; Intel Mac OS X 10_15_7) AppleWebKit/537.36 (KHTML, like Gecko) Chrome/94.0.4606.61 Safari/537.36"",""on_chrome"":true,""on_mobile"":false,""language"":""nl-NL"",""screen_resolution"":[1440,900],""platform"":""MacIntel"",""timezone"":""Europe/Amsterdam""}","","","","1632986551415","13","","","tomato","null","false","","","0.35","1","3","0.2","filler","F","","","tomato","0.9546766877174377","[object SpeechRecognitionResultList]"
"1342","","html-speech-API-response","43","153065","0.0-4.39-0.39","4","dutch","zad56wz01cb4u61","{""user_agent"":""Mozilla/5.0 (Macintosh; Intel Mac OS X 10_15_7) AppleWebKit/537.36 (KHTML, like Gecko) Chrome/94.0.4606.61 Safari/537.36"",""on_chrome"":true,""on_mobile"":false,""language"":""nl-NL"",""screen_resolution"":[1440,900],""platform"":""MacIntel"",""timezone"":""Europe/Amsterdam""}","","","","1632986555916","14","","","poison","null","true","","","0.35","1","3","0.2","filler","F","","","poison","0.8032917380332947","[object SpeechRecognitionResultList]"
"1341","","html-speech-API-response","44","156844","0.0-4.40-0.40","4","dutch","zad56wz01cb4u61","{""user_agent"":""Mozilla/5.0 (Macintosh; Intel Mac OS X 10_15_7) AppleWebKit/537.36 (KHTML, like Gecko) Chrome/94.0.4606.61 Safari/537.36"",""on_chrome"":true,""on_mobile"":false,""language"":""nl-NL"",""screen_resolution"":[1440,900],""platform"":""MacIntel"",""timezone"":""Europe/Amsterdam""}","","","","1632986560236","14","","","poison","null","false","","","0.35","1","3","0.2","filler","F","","","poison","0.6479786038398743","[object SpeechRecognitionResultList]"
"1248","","html-speech-API-response","45","160465","0.0-4.41-0.41","4","dutch","zad56wz01cb4u61","{""user_agent"":""Mozilla/5.0 (Macintosh; Intel Mac OS X 10_15_7) AppleWebKit/537.36 (KHTML, like Gecko) Chrome/94.0.4606.61 Safari/537.36"",""on_chrome"":true,""on_mobile"":false,""language"":""nl-NL"",""screen_resolution"":[1440,900],""platform"":""MacIntel"",""timezone"":""Europe/Amsterdam""}","","","","1632986564015","14","","","poison","null","false","","","0.35","1","3","0.2","filler","F","","","Boyzone","0.7966414093971252","[object SpeechRecognitionResultList]"
"2086","","html-speech-API-response","46","165007","0.0-4.42-0.42","4","dutch","zad56wz01cb4u61","{""user_agent"":""Mozilla/5.0 (Macintosh; Intel Mac OS X 10_15_7) AppleWebKit/537.36 (KHTML, like Gecko) Chrome/94.0.4606.61 Safari/537.36"",""on_chrome"":true,""on_mobile"":false,""language"":""nl-NL"",""screen_resolution"":[1440,900],""platform"":""MacIntel"",""timezone"":""Europe/Amsterdam""}","","","","1632986567634","15","","","soul","null","true","","","0.35","1","3","0.2","filler","F","","","soul","0.8509737253189087","[object SpeechRecognitionResultList]"
"1060","","html-speech-API-response","47","168645","0.0-4.43-0.43","4","dutch","zad56wz01cb4u61","{""user_agent"":""Mozilla/5.0 (Macintosh; Intel Mac OS X 10_15_7) AppleWebKit/537.36 (KHTML, like Gecko) Chrome/94.0.4606.61 Safari/537.36"",""on_chrome"":true,""on_mobile"":false,""language"":""nl-NL"",""screen_resolution"":[1440,900],""platform"":""MacIntel"",""timezone"":""Europe/Amsterdam""}","","","","1632986572178","15","","","soul","null","false","","","0.35","1","3","0.2","filler","F","","","sold","0.9546766877174377","[object SpeechRecognitionResultList]"
"1158","","html-speech-API-response","48","172332","0.0-4.44-0.44","4","dutch","zad56wz01cb4u61","{""user_agent"":""Mozilla/5.0 (Macintosh; Intel Mac OS X 10_15_7) AppleWebKit/537.36 (KHTML, like Gecko) Chrome/94.0.4606.61 Safari/537.36"",""on_chrome"":true,""on_mobile"":false,""language"":""nl-NL"",""screen_resolution"":[1440,900],""platform"":""MacIntel"",""timezone"":""Europe/Amsterdam""}","","","","1632986575815","15","","","soul","null","false","","","0.35","1","3","0.2","filler","F","","","so","0.821519136428833","[object SpeechRecognitionResultList]"
"2180","","html-speech-API-response","49","176941","0.0-4.45-0.45","4","dutch","zad56wz01cb4u61","{""user_agent"":""Mozilla/5.0 (Macintosh; Intel Mac OS X 10_15_7) AppleWebKit/537.36 (KHTML, like Gecko) Chrome/94.0.4606.61 Safari/537.36"",""on_chrome"":true,""on_mobile"":false,""language"":""nl-NL"",""screen_resolution"":[1440,900],""platform"":""MacIntel"",""timezone"":""Europe/Amsterdam""}","","","","1632986579503","16","","","food","null","true","","","0.35","1","3","0.2","filler","F","","","third","0.7820801734924316","[object SpeechRecognitionResultList]"
"1249","","html-speech-API-response","50","180432","0.0-4.46-0.46","4","dutch","zad56wz01cb4u61","{""user_agent"":""Mozilla/5.0 (Macintosh; Intel Mac OS X 10_15_7) AppleWebKit/537.36 (KHTML, like Gecko) Chrome/94.0.4606.61 Safari/537.36"",""on_chrome"":true,""on_mobile"":false,""language"":""nl-NL"",""screen_resolution"":[1440,900],""platform"":""MacIntel"",""timezone"":""Europe/Amsterdam""}","","","","1632986584111","16","","","food","null","false","","","0.35","1","3","0.2","filler","F","","","food","0.8933151960372925","[object SpeechRecognitionResultList]"
"1713","","html-speech-API-response","51","184511","0.0-4.47-0.47","4","dutch","zad56wz01cb4u61","{""user_agent"":""Mozilla/5.0 (Macintosh; Intel Mac OS X 10_15_7) AppleWebKit/537.36 (KHTML, like Gecko) Chrome/94.0.4606.61 Safari/537.36"",""on_chrome"":true,""on_mobile"":false,""language"":""nl-NL"",""screen_resolution"":[1440,900],""platform"":""MacIntel"",""timezone"":""Europe/Amsterdam""}","","","","1632986587601","16","","","food","null","false","","","0.35","1","3","0.2","filler","F","","","food","0.8933565020561218","[object SpeechRecognitionResultList]"
"1527","","html-speech-API-response","52","188463","0.0-4.48-0.48","4","dutch","zad56wz01cb4u61","{""user_agent"":""Mozilla/5.0 (Macintosh; Intel Mac OS X 10_15_7) AppleWebKit/537.36 (KHTML, like Gecko) Chrome/94.0.4606.61 Safari/537.36"",""on_chrome"":true,""on_mobile"":false,""language"":""nl-NL"",""screen_resolution"":[1440,900],""platform"":""MacIntel"",""timezone"":""Europe/Amsterdam""}","","","","1632986591681","17","","","crab","null","true","","","0.35","1","3","0.2","filler","F","","","crab","0.8734437227249146","[object SpeechRecognitionResultList]"
"779","","html-speech-API-response","53","191696","0.0-4.49-0.49","4","dutch","zad56wz01cb4u61","{""user_agent"":""Mozilla/5.0 (Macintosh; Intel Mac OS X 10_15_7) AppleWebKit/537.36 (KHTML, like Gecko) Chrome/94.0.4606.61 Safari/537.36"",""on_chrome"":true,""on_mobile"":false,""language"":""nl-NL"",""screen_resolution"":[1440,900],""platform"":""MacIntel"",""timezone"":""Europe/Amsterdam""}","","","","1632986595632","17","","","crab","null","false","","","0.35","1","3","0.2","filler","F","","","crab","0.8702483773231506","[object SpeechRecognitionResultList]"
"1155","","html-speech-API-response","54","195262","0.0-4.50-0.50","4","dutch","zad56wz01cb4u61","{""user_agent"":""Mozilla/5.0 (Macintosh; Intel Mac OS X 10_15_7) AppleWebKit/537.36 (KHTML, like Gecko) Chrome/94.0.4606.61 Safari/537.36"",""on_chrome"":true,""on_mobile"":false,""language"":""nl-NL"",""screen_resolution"":[1440,900],""platform"":""MacIntel"",""timezone"":""Europe/Amsterdam""}","","","","1632986598866","17","","","crab","null","false","","","0.35","1","3","0.2","filler","F","","","crab","0.8595985174179077","[object SpeechRecognitionResultList]"
"1343","","html-speech-API-response","55","199004","0.0-4.51-0.51","4","dutch","zad56wz01cb4u61","{""user_agent"":""Mozilla/5.0 (Macintosh; Intel Mac OS X 10_15_7) AppleWebKit/537.36 (KHTML, like Gecko) Chrome/94.0.4606.61 Safari/537.36"",""on_chrome"":true,""on_mobile"":false,""language"":""nl-NL"",""screen_resolution"":[1440,900],""platform"":""MacIntel"",""timezone"":""Europe/Amsterdam""}","","","","1632986602431","18","","","corpse","null","true","","","0.35","1","3","0.2","filler","F","","","corpse","0.9546766877174377","[object SpeechRecognitionResultList]"
"876","","html-speech-API-response","56","202421","0.0-4.52-0.52","4","dutch","zad56wz01cb4u61","{""user_agent"":""Mozilla/5.0 (Macintosh; Intel Mac OS X 10_15_7) AppleWebKit/537.36 (KHTML, like Gecko) Chrome/94.0.4606.61 Safari/537.36"",""on_chrome"":true,""on_mobile"":false,""language"":""nl-NL"",""screen_resolution"":[1440,900],""platform"":""MacIntel"",""timezone"":""Europe/Amsterdam""}","","","","1632986606173","18","","","corpse","null","false","","","0.35","1","3","0.2","filler","F","","","Gorse","0.5166485905647278","[object SpeechRecognitionResultList]"
"1526","","html-speech-API-response","57","206500","0.0-4.53-0.53","4","dutch","zad56wz01cb4u61","{""user_agent"":""Mozilla/5.0 (Macintosh; Intel Mac OS X 10_15_7) AppleWebKit/537.36 (KHTML, like Gecko) Chrome/94.0.4606.61 Safari/537.36"",""on_chrome"":true,""on_mobile"":false,""language"":""nl-NL"",""screen_resolution"":[1440,900],""platform"":""MacIntel"",""timezone"":""Europe/Amsterdam""}","","","","1632986609597","18","","","corpse","null","false","","","0.35","1","3","0.2","filler","F","","","corpse","0.7872734665870667","[object SpeechRecognitionResultList]"
"1063","","html-speech-API-response","58","209946","0.0-4.54-0.54","4","dutch","zad56wz01cb4u61","{""user_agent"":""Mozilla/5.0 (Macintosh; Intel Mac OS X 10_15_7) AppleWebKit/537.36 (KHTML, like Gecko) Chrome/94.0.4606.61 Safari/537.36"",""on_chrome"":true,""on_mobile"":false,""language"":""nl-NL"",""screen_resolution"":[1440,900],""platform"":""MacIntel"",""timezone"":""Europe/Amsterdam""}","","","","1632986613670","19","","","horse","null","true","","","0.35","1","3","0.2","filler","F","","","horse","0.8657904863357544","[object SpeechRecognitionResultList]"
"2640","","html-speech-API-response","59","215004","0.0-4.55-0.55","4","dutch","zad56wz01cb4u61","{""user_agent"":""Mozilla/5.0 (Macintosh; Intel Mac OS X 10_15_7) AppleWebKit/537.36 (KHTML, like Gecko) Chrome/94.0.4606.61 Safari/537.36"",""on_chrome"":true,""on_mobile"":false,""language"":""nl-NL"",""screen_resolution"":[1440,900],""platform"":""MacIntel"",""timezone"":""Europe/Amsterdam""}","","","","1632986617114","19","","","horse","null","false","","","0.35","1","3","0.2","filler","F","","","horse","0.865791916847229","[object SpeechRecognitionResultList]"
"1154","","html-speech-API-response","60","218604","0.0-4.56-0.56","4","dutch","zad56wz01cb4u61","{""user_agent"":""Mozilla/5.0 (Macintosh; Intel Mac OS X 10_15_7) AppleWebKit/537.36 (KHTML, like Gecko) Chrome/94.0.4606.61 Safari/537.36"",""on_chrome"":true,""on_mobile"":false,""language"":""nl-NL"",""screen_resolution"":[1440,900],""platform"":""MacIntel"",""timezone"":""Europe/Amsterdam""}","","","","1632986622173","19","","","horse","null","false","","","0.35","1","3","0.2","filler","F","","","horse","0.8657904863357544","[object SpeechRecognitionResultList]"
"1157","","html-speech-API-response","61","222213","0.0-4.57-0.57","4","dutch","zad56wz01cb4u61","{""user_agent"":""Mozilla/5.0 (Macintosh; Intel Mac OS X 10_15_7) AppleWebKit/537.36 (KHTML, like Gecko) Chrome/94.0.4606.61 Safari/537.36"",""on_chrome"":true,""on_mobile"":false,""language"":""nl-NL"",""screen_resolution"":[1440,900],""platform"":""MacIntel"",""timezone"":""Europe/Amsterdam""}","","","","1632986625773","20","","","scarf","null","true","","","0.35","1","3","0.2","filler","F","","","scarf","0.9546766877174377","[object SpeechRecognitionResultList]"
"968","","html-speech-API-response","62","225602","0.0-4.58-0.58","4","dutch","zad56wz01cb4u61","{""user_agent"":""Mozilla/5.0 (Macintosh; Intel Mac OS X 10_15_7) AppleWebKit/537.36 (KHTML, like Gecko) Chrome/94.0.4606.61 Safari/537.36"",""on_chrome"":true,""on_mobile"":false,""language"":""nl-NL"",""screen_resolution"":[1440,900],""platform"":""MacIntel"",""timezone"":""Europe/Amsterdam""}","","","","1632986629382","20","","","scarf","null","false","","","0.35","1","3","0.2","filler","F","","","scarf","0.9546766877174377","[object SpeechRecognitionResultList]"
"874","","html-speech-API-response","63","228997","0.0-4.59-0.59","4","dutch","zad56wz01cb4u61","{""user_agent"":""Mozilla/5.0 (Macintosh; Intel Mac OS X 10_15_7) AppleWebKit/537.36 (KHTML, like Gecko) Chrome/94.0.4606.61 Safari/537.36"",""on_chrome"":true,""on_mobile"":false,""language"":""nl-NL"",""screen_resolution"":[1440,900],""platform"":""MacIntel"",""timezone"":""Europe/Amsterdam""}","","","","1632986632770","20","","","scarf","null","false","","","0.35","1","3","0.2","filler","F","","","scarf","0.9546766877174377","[object SpeechRecognitionResultList]"
"1157","","html-speech-API-response","64","232544","0.0-4.60-0.60","4","dutch","zad56wz01cb4u61","{""user_agent"":""Mozilla/5.0 (Macintosh; Intel Mac OS X 10_15_7) AppleWebKit/537.36 (KHTML, like Gecko) Chrome/94.0.4606.61 Safari/537.36"",""on_chrome"":true,""on_mobile"":false,""language"":""nl-NL"",""screen_resolution"":[1440,900],""platform"":""MacIntel"",""timezone"":""Europe/Amsterdam""}","","","","1632986636167","21","","","silk","null","true","","","0.35","1","3","0.2","filler","F","","","silk","0.8177129030227661","[object SpeechRecognitionResultList]"
"1247","","html-speech-API-response","65","236116","0.0-4.61-0.61","4","dutch","zad56wz01cb4u61","{""user_agent"":""Mozilla/5.0 (Macintosh; Intel Mac OS X 10_15_7) AppleWebKit/537.36 (KHTML, like Gecko) Chrome/94.0.4606.61 Safari/537.36"",""on_chrome"":true,""on_mobile"":false,""language"":""nl-NL"",""screen_resolution"":[1440,900],""platform"":""MacIntel"",""timezone"":""Europe/Amsterdam""}","","","","1632986639714","21","","","silk","null","false","","","0.35","1","3","0.2","filler","F","","","silk","0.8177129030227661","[object SpeechRecognitionResultList]"
"1524","","html-speech-API-response","66","240098","0.0-4.62-0.62","4","dutch","zad56wz01cb4u61","{""user_agent"":""Mozilla/5.0 (Macintosh; Intel Mac OS X 10_15_7) AppleWebKit/537.36 (KHTML, like Gecko) Chrome/94.0.4606.61 Safari/537.36"",""on_chrome"":true,""on_mobile"":false,""language"":""nl-NL"",""screen_resolution"":[1440,900],""platform"":""MacIntel"",""timezone"":""Europe/Amsterdam""}","","","","1632986643286","21","","","silk","null","false","","","0.35","1","3","0.2","filler","F","","","silk","0.817715048789978","[object SpeechRecognitionResultList]"
"1899","","html-speech-API-response","67","244502","0.0-4.63-0.63","4","dutch","zad56wz01cb4u61","{""user_agent"":""Mozilla/5.0 (Macintosh; Intel Mac OS X 10_15_7) AppleWebKit/537.36 (KHTML, like Gecko) Chrome/94.0.4606.61 Safari/537.36"",""on_chrome"":true,""on_mobile"":false,""language"":""nl-NL"",""screen_resolution"":[1440,900],""platform"":""MacIntel"",""timezone"":""Europe/Amsterdam""}","","","","1632986647268","22","","","queen","null","true","","","0.35","1","3","0.2","filler","F","","","Green","0.741965115070343","[object SpeechRecognitionResultList]"
"1154","","html-speech-API-response","68","248140","0.0-4.64-0.64","4","dutch","zad56wz01cb4u61","{""user_agent"":""Mozilla/5.0 (Macintosh; Intel Mac OS X 10_15_7) AppleWebKit/537.36 (KHTML, like Gecko) Chrome/94.0.4606.61 Safari/537.36"",""on_chrome"":true,""on_mobile"":false,""language"":""nl-NL"",""screen_resolution"":[1440,900],""platform"":""MacIntel"",""timezone"":""Europe/Amsterdam""}","","","","1632986651670","22","","","queen","null","false","","","0.35","1","3","0.2","filler","F","","","Queen","0.8130865097045898","[object SpeechRecognitionResultList]"
"1339","","html-speech-API-response","69","251956","0.0-4.65-0.65","4","dutch","zad56wz01cb4u61","{""user_agent"":""Mozilla/5.0 (Macintosh; Intel Mac OS X 10_15_7) AppleWebKit/537.36 (KHTML, like Gecko) Chrome/94.0.4606.61 Safari/537.36"",""on_chrome"":true,""on_mobile"":false,""language"":""nl-NL"",""screen_resolution"":[1440,900],""platform"":""MacIntel"",""timezone"":""Europe/Amsterdam""}","","","","1632986655309","22","","","queen","null","false","","","0.35","1","3","0.2","filler","F","","","Queen","0.813086211681366","[object SpeechRecognitionResultList]"
"1159","","html-speech-API-response","70","255580","0.0-4.66-0.66","4","dutch","zad56wz01cb4u61","{""user_agent"":""Mozilla/5.0 (Macintosh; Intel Mac OS X 10_15_7) AppleWebKit/537.36 (KHTML, like Gecko) Chrome/94.0.4606.61 Safari/537.36"",""on_chrome"":true,""on_mobile"":false,""language"":""nl-NL"",""screen_resolution"":[1440,900],""platform"":""MacIntel"",""timezone"":""Europe/Amsterdam""}","","","","1632986659128","23","","","ornament","null","true","","","0.35","1","3","0.2","filler","F","","","ornament","0.9546766877174377","[object SpeechRecognitionResultList]"
"1610","","html-speech-API-response","71","258201","0.0-4.67-0.67","4","dutch","zad56wz01cb4u61","{""user_agent"":""Mozilla/5.0 (Macintosh; Intel Mac OS X 10_15_7) AppleWebKit/537.36 (KHTML, like Gecko) Chrome/94.0.4606.61 Safari/537.36"",""on_chrome"":true,""on_mobile"":false,""language"":""nl-NL"",""screen_resolution"":[1440,900],""platform"":""MacIntel"",""timezone"":""Europe/Amsterdam""}","","","","1632986662749","23","","","ornament","null","false","","","0.35","1","3","0.2","filler","F","","","ornament","0.9546766877174377","[object SpeechRecognitionResultList]"
"1619","","html-speech-API-response","72","262335","0.0-4.68-0.68","4","dutch","zad56wz01cb4u61","{""user_agent"":""Mozilla/5.0 (Macintosh; Intel Mac OS X 10_15_7) AppleWebKit/537.36 (KHTML, like Gecko) Chrome/94.0.4606.61 Safari/537.36"",""on_chrome"":true,""on_mobile"":false,""language"":""nl-NL"",""screen_resolution"":[1440,900],""platform"":""MacIntel"",""timezone"":""Europe/Amsterdam""}","","","","1632986665370","23","","","ornament","null","false","","","0.35","1","3","0.2","filler","F","","","ornament","0.9546766877174377","[object SpeechRecognitionResultList]"
"1345","","html-speech-API-response","73","265967","0.0-4.69-0.69","4","dutch","zad56wz01cb4u61","{""user_agent"":""Mozilla/5.0 (Macintosh; Intel Mac OS X 10_15_7) AppleWebKit/537.36 (KHTML, like Gecko) Chrome/94.0.4606.61 Safari/537.36"",""on_chrome"":true,""on_mobile"":false,""language"":""nl-NL"",""screen_resolution"":[1440,900],""platform"":""MacIntel"",""timezone"":""Europe/Amsterdam""}","","","","1632986669506","24","","","carpet","null","true","","","0.35","1","3","0.2","filler","F","","","carpet","0.8869622945785522","[object SpeechRecognitionResultList]"
"966","","html-speech-API-response","74","269682","0.0-4.70-0.70","4","dutch","zad56wz01cb4u61","{""user_agent"":""Mozilla/5.0 (Macintosh; Intel Mac OS X 10_15_7) AppleWebKit/537.36 (KHTML, like Gecko) Chrome/94.0.4606.61 Safari/537.36"",""on_chrome"":true,""on_mobile"":false,""language"":""nl-NL"",""screen_resolution"":[1440,900],""platform"":""MacIntel"",""timezone"":""Europe/Amsterdam""}","","","","1632986673137","24","","","carpet","null","false","","","0.35","1","3","0.2","filler","F","","","carpet","0.8869618773460388","[object SpeechRecognitionResultList]"
"1617","","html-speech-API-response","75","273638","0.0-4.71-0.71","4","dutch","zad56wz01cb4u61","{""user_agent"":""Mozilla/5.0 (Macintosh; Intel Mac OS X 10_15_7) AppleWebKit/537.36 (KHTML, like Gecko) Chrome/94.0.4606.61 Safari/537.36"",""on_chrome"":true,""on_mobile"":false,""language"":""nl-NL"",""screen_resolution"":[1440,900],""platform"":""MacIntel"",""timezone"":""Europe/Amsterdam""}","","","","1632986676852","24","","","carpet","null","false","","","0.35","1","3","0.2","filler","F","","","carpet","0.8637647032737732","[object SpeechRecognitionResultList]"
"970","","html-speech-API-response","76","277958","0.0-4.72-0.72","4","dutch","zad56wz01cb4u61","{""user_agent"":""Mozilla/5.0 (Macintosh; Intel Mac OS X 10_15_7) AppleWebKit/537.36 (KHTML, like Gecko) Chrome/94.0.4606.61 Safari/537.36"",""on_chrome"":true,""on_mobile"":false,""language"":""nl-NL"",""screen_resolution"":[1440,900],""platform"":""MacIntel"",""timezone"":""Europe/Amsterdam""}","","","","1632986680807","25","","","barrel","null","true","","","0.35","1","3","0.2","filler","F","","","barrel","0.8412686586380005","[object SpeechRecognitionResultList]"
"1061","","html-speech-API-response","77","281673","0.0-4.73-0.73","4","dutch","zad56wz01cb4u61","{""user_agent"":""Mozilla/5.0 (Macintosh; Intel Mac OS X 10_15_7) AppleWebKit/537.36 (KHTML, like Gecko) Chrome/94.0.4606.61 Safari/537.36"",""on_chrome"":true,""on_mobile"":false,""language"":""nl-NL"",""screen_resolution"":[1440,900],""platform"":""MacIntel"",""timezone"":""Europe/Amsterdam""}","","","","1632986685127","25","","","barrel","null","false","","","0.35","1","3","0.2","filler","F","","","barrel","0.8416825532913208","[object SpeechRecognitionResultList]"
"1153","","html-speech-API-response","78","285368","0.0-4.74-0.74","4","dutch","zad56wz01cb4u61","{""user_agent"":""Mozilla/5.0 (Macintosh; Intel Mac OS X 10_15_7) AppleWebKit/537.36 (KHTML, like Gecko) Chrome/94.0.4606.61 Safari/537.36"",""on_chrome"":true,""on_mobile"":false,""language"":""nl-NL"",""screen_resolution"":[1440,900],""platform"":""MacIntel"",""timezone"":""Europe/Amsterdam""}","","","","1632986688842","25","","","barrel","null","false","","","0.35","1","3","0.2","filler","F","","","Daryl","0.8526433706283569","[object SpeechRecognitionResultList]"
"970","","html-speech-API-response","79","289148","0.0-4.75-0.75","4","dutch","zad56wz01cb4u61","{""user_agent"":""Mozilla/5.0 (Macintosh; Intel Mac OS X 10_15_7) AppleWebKit/537.36 (KHTML, like Gecko) Chrome/94.0.4606.61 Safari/537.36"",""on_chrome"":true,""on_mobile"":false,""language"":""nl-NL"",""screen_resolution"":[1440,900],""platform"":""MacIntel"",""timezone"":""Europe/Amsterdam""}","","","","1632986692538","26","","","rumour","null","true","","","0.35","1","3","0.2","filler","F","","","rumour","0.8568061590194702","[object SpeechRecognitionResultList]"
"1714","","html-speech-API-response","80","293271","0.0-4.76-0.76","4","dutch","zad56wz01cb4u61","{""user_agent"":""Mozilla/5.0 (Macintosh; Intel Mac OS X 10_15_7) AppleWebKit/537.36 (KHTML, like Gecko) Chrome/94.0.4606.61 Safari/537.36"",""on_chrome"":true,""on_mobile"":false,""language"":""nl-NL"",""screen_resolution"":[1440,900],""platform"":""MacIntel"",""timezone"":""Europe/Amsterdam""}","","","","1632986696316","26","","","rumour","null","false","","","0.35","1","3","0.2","filler","F","","","rumour","0.8576399683952332","[object SpeechRecognitionResultList]"
"1528","","html-speech-API-response","81","297221","0.0-4.77-0.77","4","dutch","zad56wz01cb4u61","{""user_agent"":""Mozilla/5.0 (Macintosh; Intel Mac OS X 10_15_7) AppleWebKit/537.36 (KHTML, like Gecko) Chrome/94.0.4606.61 Safari/537.36"",""on_chrome"":true,""on_mobile"":false,""language"":""nl-NL"",""screen_resolution"":[1440,900],""platform"":""MacIntel"",""timezone"":""Europe/Amsterdam""}","","","","1632986700440","26","","","rumour","null","false","","","0.35","1","3","0.2","filler","F","","","rumour","0.8571255207061768","[object SpeechRecognitionResultList]"
"1619","","html-speech-API-response","82","301357","0.0-4.78-0.78","4","dutch","zad56wz01cb4u61","{""user_agent"":""Mozilla/5.0 (Macintosh; Intel Mac OS X 10_15_7) AppleWebKit/537.36 (KHTML, like Gecko) Chrome/94.0.4606.61 Safari/537.36"",""on_chrome"":true,""on_mobile"":false,""language"":""nl-NL"",""screen_resolution"":[1440,900],""platform"":""MacIntel"",""timezone"":""Europe/Amsterdam""}","","","","1632986704390","27","","","curtain","null","true","","","0.35","1","3","0.2","filler","F","","","Gordon","0.21689143776893616","[object SpeechRecognitionResultList]"
"1526","","html-speech-API-response","83","305481","0.0-4.79-0.79","4","dutch","zad56wz01cb4u61","{""user_agent"":""Mozilla/5.0 (Macintosh; Intel Mac OS X 10_15_7) AppleWebKit/537.36 (KHTML, like Gecko) Chrome/94.0.4606.61 Safari/537.36"",""on_chrome"":true,""on_mobile"":false,""language"":""nl-NL"",""screen_resolution"":[1440,900],""platform"":""MacIntel"",""timezone"":""Europe/Amsterdam""}","","","","1632986708527","27","","","curtain","null","false","","","0.35","1","3","0.2","filler","F","","","garden","0.5121288299560547","[object SpeechRecognitionResultList]"
"1340","","html-speech-API-response","84","309282","0.0-4.80-0.80","4","dutch","zad56wz01cb4u61","{""user_agent"":""Mozilla/5.0 (Macintosh; Intel Mac OS X 10_15_7) AppleWebKit/537.36 (KHTML, like Gecko) Chrome/94.0.4606.61 Safari/537.36"",""on_chrome"":true,""on_mobile"":false,""language"":""nl-NL"",""screen_resolution"":[1440,900],""platform"":""MacIntel"",""timezone"":""Europe/Amsterdam""}","","","","1632986712651","27","","","curtain","null","false","","","0.35","1","3","0.2","filler","F","","","curtain","0.7151428461074829","[object SpeechRecognitionResultList]"
"1155","","html-speech-API-response","85","312956","0.0-4.81-0.81","4","dutch","zad56wz01cb4u61","{""user_agent"":""Mozilla/5.0 (Macintosh; Intel Mac OS X 10_15_7) AppleWebKit/537.36 (KHTML, like Gecko) Chrome/94.0.4606.61 Safari/537.36"",""on_chrome"":true,""on_mobile"":false,""language"":""nl-NL"",""screen_resolution"":[1440,900],""platform"":""MacIntel"",""timezone"":""Europe/Amsterdam""}","","","","1632986716453","28","","","snow","null","true","","","0.35","1","3","0.2","filler","F","","","snow","0.879135251045227","[object SpeechRecognitionResultList]"
"1061","","html-speech-API-response","86","316625","0.0-4.82-0.82","4","dutch","zad56wz01cb4u61","{""user_agent"":""Mozilla/5.0 (Macintosh; Intel Mac OS X 10_15_7) AppleWebKit/537.36 (KHTML, like Gecko) Chrome/94.0.4606.61 Safari/537.36"",""on_chrome"":true,""on_mobile"":false,""language"":""nl-NL"",""screen_resolution"":[1440,900],""platform"":""MacIntel"",""timezone"":""Europe/Amsterdam""}","","","","1632986720125","28","","","snow","null","false","","","0.35","1","3","0.2","filler","F","","","snow","0.8791363835334778","[object SpeechRecognitionResultList]"
"1246","","html-speech-API-response","87","320357","0.0-4.83-0.83","4","dutch","zad56wz01cb4u61","{""user_agent"":""Mozilla/5.0 (Macintosh; Intel Mac OS X 10_15_7) AppleWebKit/537.36 (KHTML, like Gecko) Chrome/94.0.4606.61 Safari/537.36"",""on_chrome"":true,""on_mobile"":false,""language"":""nl-NL"",""screen_resolution"":[1440,900],""platform"":""MacIntel"",""timezone"":""Europe/Amsterdam""}","","","","1632986723795","28","","","snow","null","false","","","0.35","1","3","0.2","filler","F","","","snow","0.879135251045227","[object SpeechRecognitionResultList]"
"1156","","html-speech-API-response","88","324035","0.0-4.84-0.84","4","dutch","zad56wz01cb4u61","{""user_agent"":""Mozilla/5.0 (Macintosh; Intel Mac OS X 10_15_7) AppleWebKit/537.36 (KHTML, like Gecko) Chrome/94.0.4606.61 Safari/537.36"",""on_chrome"":true,""on_mobile"":false,""language"":""nl-NL"",""screen_resolution"":[1440,900],""platform"":""MacIntel"",""timezone"":""Europe/Amsterdam""}","","","","1632986727526","29","","","monkey","null","true","","","0.35","1","3","0.2","filler","F","","","monkey","0.8929408192634583","[object SpeechRecognitionResultList]"
"1060","","html-speech-API-response","89","327620","0.0-4.85-0.85","4","dutch","zad56wz01cb4u61","{""user_agent"":""Mozilla/5.0 (Macintosh; Intel Mac OS X 10_15_7) AppleWebKit/537.36 (KHTML, like Gecko) Chrome/94.0.4606.61 Safari/537.36"",""on_chrome"":true,""on_mobile"":false,""language"":""nl-NL"",""screen_resolution"":[1440,900],""platform"":""MacIntel"",""timezone"":""Europe/Amsterdam""}","","","","1632986731204","29","","","monkey","null","false","","","0.35","1","3","0.2","filler","F","","","monkey","0.8921632766723633","[object SpeechRecognitionResultList]"
"1248","","html-speech-API-response","90","331340","0.0-4.86-0.86","4","dutch","zad56wz01cb4u61","{""user_agent"":""Mozilla/5.0 (Macintosh; Intel Mac OS X 10_15_7) AppleWebKit/537.36 (KHTML, like Gecko) Chrome/94.0.4606.61 Safari/537.36"",""on_chrome"":true,""on_mobile"":false,""language"":""nl-NL"",""screen_resolution"":[1440,900],""platform"":""MacIntel"",""timezone"":""Europe/Amsterdam""}","","","","1632986734790","29","","","monkey","null","false","","","0.35","1","3","0.2","filler","F","","","monkey","0.8920149207115173","[object SpeechRecognitionResultList]"
"970","","html-speech-API-response","91","334903","0.0-4.87-0.87","4","dutch","zad56wz01cb4u61","{""user_agent"":""Mozilla/5.0 (Macintosh; Intel Mac OS X 10_15_7) AppleWebKit/537.36 (KHTML, like Gecko) Chrome/94.0.4606.61 Safari/537.36"",""on_chrome"":true,""on_mobile"":false,""language"":""nl-NL"",""screen_resolution"":[1440,900],""platform"":""MacIntel"",""timezone"":""Europe/Amsterdam""}","","","","1632986738511","30","","","steam","null","true","","","0.35","1","3","0.2","filler","F","","","steam","0.8249362111091614","[object SpeechRecognitionResultList]"
"968","","html-speech-API-response","92","338443","0.0-4.88-0.88","4","dutch","zad56wz01cb4u61","{""user_agent"":""Mozilla/5.0 (Macintosh; Intel Mac OS X 10_15_7) AppleWebKit/537.36 (KHTML, like Gecko) Chrome/94.0.4606.61 Safari/537.36"",""on_chrome"":true,""on_mobile"":false,""language"":""nl-NL"",""screen_resolution"":[1440,900],""platform"":""MacIntel"",""timezone"":""Europe/Amsterdam""}","","","","1632986742073","30","","","steam","null","false","","","0.35","1","3","0.2","filler","F","","","steam","0.8249362111091614","[object SpeechRecognitionResultList]"
"1244","","html-speech-API-response","93","342400","0.0-4.89-0.89","4","dutch","zad56wz01cb4u61","{""user_agent"":""Mozilla/5.0 (Macintosh; Intel Mac OS X 10_15_7) AppleWebKit/537.36 (KHTML, like Gecko) Chrome/94.0.4606.61 Safari/537.36"",""on_chrome"":true,""on_mobile"":false,""language"":""nl-NL"",""screen_resolution"":[1440,900],""platform"":""MacIntel"",""timezone"":""Europe/Amsterdam""}","","","","1632986745613","30","","","steam","null","false","","","0.35","1","3","0.2","filler","F","","","steam","0.8249362111091614","[object SpeechRecognitionResultList]"
"972","","html-speech-API-response","94","345924","0.0-4.90-0.90","4","dutch","zad56wz01cb4u61","{""user_agent"":""Mozilla/5.0 (Macintosh; Intel Mac OS X 10_15_7) AppleWebKit/537.36 (KHTML, like Gecko) Chrome/94.0.4606.61 Safari/537.36"",""on_chrome"":true,""on_mobile"":false,""language"":""nl-NL"",""screen_resolution"":[1440,900],""platform"":""MacIntel"",""timezone"":""Europe/Amsterdam""}","","","","1632986749571","31","","","leisure","null","true","","","0.35","1","3","0.2","filler","F","","","Leisure","0.8643864393234253","[object SpeechRecognitionResultList]"
"1150","","html-speech-API-response","95","349684","0.0-4.91-0.91","4","dutch","zad56wz01cb4u61","{""user_agent"":""Mozilla/5.0 (Macintosh; Intel Mac OS X 10_15_7) AppleWebKit/537.36 (KHTML, like Gecko) Chrome/94.0.4606.61 Safari/537.36"",""on_chrome"":true,""on_mobile"":false,""language"":""nl-NL"",""screen_resolution"":[1440,900],""platform"":""MacIntel"",""timezone"":""Europe/Amsterdam""}","","","","1632986753092","31","","","leisure","null","false","","","0.35","1","3","0.2","filler","F","","","Leisure","0.8667972087860107","[object SpeechRecognitionResultList]"
"1060","","html-speech-API-response","96","353281","0.0-4.92-0.92","4","dutch","zad56wz01cb4u61","{""user_agent"":""Mozilla/5.0 (Macintosh; Intel Mac OS X 10_15_7) AppleWebKit/537.36 (KHTML, like Gecko) Chrome/94.0.4606.61 Safari/537.36"",""on_chrome"":true,""on_mobile"":false,""language"":""nl-NL"",""screen_resolution"":[1440,900],""platform"":""MacIntel"",""timezone"":""Europe/Amsterdam""}","","","","1632986756854","31","","","leisure","null","false","","","0.35","1","3","0.2","filler","F","","","Leisure","0.8667982220649719","[object SpeechRecognitionResultList]"
"1160","","html-speech-API-response","97","356952","0.0-4.93-0.93","4","dutch","zad56wz01cb4u61","{""user_agent"":""Mozilla/5.0 (Macintosh; Intel Mac OS X 10_15_7) AppleWebKit/537.36 (KHTML, like Gecko) Chrome/94.0.4606.61 Safari/537.36"",""on_chrome"":true,""on_mobile"":false,""language"":""nl-NL"",""screen_resolution"":[1440,900],""platform"":""MacIntel"",""timezone"":""Europe/Amsterdam""}","","","","1632986760452","32","","","grave","null","true","","","0.35","1","3","0.2","filler","F","","","grave","0.9385192394256592","[object SpeechRecognitionResultList]"
"967","","html-speech-API-response","98","360458","0.0-4.94-0.94","4","dutch","zad56wz01cb4u61","{""user_agent"":""Mozilla/5.0 (Macintosh; Intel Mac OS X 10_15_7) AppleWebKit/537.36 (KHTML, like Gecko) Chrome/94.0.4606.61 Safari/537.36"",""on_chrome"":true,""on_mobile"":false,""language"":""nl-NL"",""screen_resolution"":[1440,900],""platform"":""MacIntel"",""timezone"":""Europe/Amsterdam""}","","","","1632986764122","32","","","grave","null","false","","","0.35","1","3","0.2","filler","F","","","graze","0.873034656047821","[object SpeechRecognitionResultList]"
"968","","html-speech-API-response","99","363739","0.0-4.95-0.95","4","dutch","zad56wz01cb4u61","{""user_agent"":""Mozilla/5.0 (Macintosh; Intel Mac OS X 10_15_7) AppleWebKit/537.36 (KHTML, like Gecko) Chrome/94.0.4606.61 Safari/537.36"",""on_chrome"":true,""on_mobile"":false,""language"":""nl-NL"",""screen_resolution"":[1440,900],""platform"":""MacIntel"",""timezone"":""Europe/Amsterdam""}","","","","1632986767628","32","","","grave","null","false","","","0.35","1","3","0.2","filler","F","","","grave","0.8791326284408569","[object SpeechRecognitionResultList]"
"1156","","html-speech-API-response","100","367338","0.0-4.96-0.96","4","dutch","zad56wz01cb4u61","{""user_agent"":""Mozilla/5.0 (Macintosh; Intel Mac OS X 10_15_7) AppleWebKit/537.36 (KHTML, like Gecko) Chrome/94.0.4606.61 Safari/537.36"",""on_chrome"":true,""on_mobile"":false,""language"":""nl-NL"",""screen_resolution"":[1440,900],""platform"":""MacIntel"",""timezone"":""Europe/Amsterdam""}","","","","1632986770910","33","","","friend","null","true","","","0.35","1","3","0.2","filler","F","","","friend","0.8856574296951294","[object SpeechRecognitionResultList]"
"1060","","html-speech-API-response","101","370909","0.0-4.97-0.97","4","dutch","zad56wz01cb4u61","{""user_agent"":""Mozilla/5.0 (Macintosh; Intel Mac OS X 10_15_7) AppleWebKit/537.36 (KHTML, like Gecko) Chrome/94.0.4606.61 Safari/537.36"",""on_chrome"":true,""on_mobile"":false,""language"":""nl-NL"",""screen_resolution"":[1440,900],""platform"":""MacIntel"",""timezone"":""Europe/Amsterdam""}","","","","1632986774507","33","","","friend","null","false","","","0.35","1","3","0.2","filler","F","","","friend","0.8856576085090637","[object SpeechRecognitionResultList]"
"1248","","html-speech-API-response","102","374576","0.0-4.98-0.98","4","dutch","zad56wz01cb4u61","{""user_agent"":""Mozilla/5.0 (Macintosh; Intel Mac OS X 10_15_7) AppleWebKit/537.36 (KHTML, like Gecko) Chrome/94.0.4606.61 Safari/537.36"",""on_chrome"":true,""on_mobile"":false,""language"":""nl-NL"",""screen_resolution"":[1440,900],""platform"":""MacIntel"",""timezone"":""Europe/Amsterdam""}","","","","1632986778079","33","","","friend","null","false","","","0.35","1","3","0.2","filler","F","","","friend","0.8856574296951294","[object SpeechRecognitionResultList]"
"1157","","html-speech-API-response","103","378158","0.0-4.99-0.99","4","dutch","zad56wz01cb4u61","{""user_agent"":""Mozilla/5.0 (Macintosh; Intel Mac OS X 10_15_7) AppleWebKit/537.36 (KHTML, like Gecko) Chrome/94.0.4606.61 Safari/537.36"",""on_chrome"":true,""on_mobile"":false,""language"":""nl-NL"",""screen_resolution"":[1440,900],""platform"":""MacIntel"",""timezone"":""Europe/Amsterdam""}","","","","1632986781746","34","","","prayer","null","true","","","0.35","1","3","0.2","filler","F","","","prayer","0.8295084238052368","[object SpeechRecognitionResultList]"
"1061","","html-speech-API-response","104","381642","0.0-4.100-0.100","4","dutch","zad56wz01cb4u61","{""user_agent"":""Mozilla/5.0 (Macintosh; Intel Mac OS X 10_15_7) AppleWebKit/537.36 (KHTML, like Gecko) Chrome/94.0.4606.61 Safari/537.36"",""on_chrome"":true,""on_mobile"":false,""language"":""nl-NL"",""screen_resolution"":[1440,900],""platform"":""MacIntel"",""timezone"":""Europe/Amsterdam""}","","","","1632986785328","34","","","prayer","null","false","","","0.35","1","3","0.2","filler","F","","","prayer","0.8021667003631592","[object SpeechRecognitionResultList]"
"1526","","html-speech-API-response","105","385381","0.0-4.101-0.101","4","dutch","zad56wz01cb4u61","{""user_agent"":""Mozilla/5.0 (Macintosh; Intel Mac OS X 10_15_7) AppleWebKit/537.36 (KHTML, like Gecko) Chrome/94.0.4606.61 Safari/537.36"",""on_chrome"":true,""on_mobile"":false,""language"":""nl-NL"",""screen_resolution"":[1440,900],""platform"":""MacIntel"",""timezone"":""Europe/Amsterdam""}","","","","1632986788811","34","","","prayer","null","false","","","0.35","1","3","0.2","filler","F","","","prayer","0.8028144836425781","[object SpeechRecognitionResultList]"
"1158","","html-speech-API-response","106","389033","0.0-4.102-0.102","4","dutch","zad56wz01cb4u61","{""user_agent"":""Mozilla/5.0 (Macintosh; Intel Mac OS X 10_15_7) AppleWebKit/537.36 (KHTML, like Gecko) Chrome/94.0.4606.61 Safari/537.36"",""on_chrome"":true,""on_mobile"":false,""language"":""nl-NL"",""screen_resolution"":[1440,900],""platform"":""MacIntel"",""timezone"":""Europe/Amsterdam""}","","","","1632986792551","35","","","shorts","null","true","","","0.35","1","3","0.2","filler","F","","","shorts","0.9546766877174377","[object SpeechRecognitionResultList]"
"1061","","html-speech-API-response","107","392573","0.0-4.103-0.103","4","dutch","zad56wz01cb4u61","{""user_agent"":""Mozilla/5.0 (Macintosh; Intel Mac OS X 10_15_7) AppleWebKit/537.36 (KHTML, like Gecko) Chrome/94.0.4606.61 Safari/537.36"",""on_chrome"":true,""on_mobile"":false,""language"":""nl-NL"",""screen_resolution"":[1440,900],""platform"":""MacIntel"",""timezone"":""Europe/Amsterdam""}","","","","1632986796203","35","","","shorts","null","false","","","0.35","1","3","0.2","filler","F","","","shorts","0.9310231804847717","[object SpeechRecognitionResultList]"
"1154","","html-speech-API-response","108","396232","0.0-4.104-0.104","4","dutch","zad56wz01cb4u61","{""user_agent"":""Mozilla/5.0 (Macintosh; Intel Mac OS X 10_15_7) AppleWebKit/537.36 (KHTML, like Gecko) Chrome/94.0.4606.61 Safari/537.36"",""on_chrome"":true,""on_mobile"":false,""language"":""nl-NL"",""screen_resolution"":[1440,900],""platform"":""MacIntel"",""timezone"":""Europe/Amsterdam""}","","","","1632986799742","35","","","shorts","null","false","","","0.35","1","3","0.2","filler","F","","","shorts","0.9546766877174377","[object SpeechRecognitionResultList]"
"1344","","html-speech-API-response","109","399977","0.0-4.105-0.105","4","dutch","zad56wz01cb4u61","{""user_agent"":""Mozilla/5.0 (Macintosh; Intel Mac OS X 10_15_7) AppleWebKit/537.36 (KHTML, like Gecko) Chrome/94.0.4606.61 Safari/537.36"",""on_chrome"":true,""on_mobile"":false,""language"":""nl-NL"",""screen_resolution"":[1440,900],""platform"":""MacIntel"",""timezone"":""Europe/Amsterdam""}","","","","1632986803402","36","","","boat","null","true","","","0.35","1","3","0.2","filler","F","","","boat","0.9051276445388794","[object SpeechRecognitionResultList]"
"874","","html-speech-API-response","110","403343","0.0-4.106-0.106","4","dutch","zad56wz01cb4u61","{""user_agent"":""Mozilla/5.0 (Macintosh; Intel Mac OS X 10_15_7) AppleWebKit/537.36 (KHTML, like Gecko) Chrome/94.0.4606.61 Safari/537.36"",""on_chrome"":true,""on_mobile"":false,""language"":""nl-NL"",""screen_resolution"":[1440,900],""platform"":""MacIntel"",""timezone"":""Europe/Amsterdam""}","","","","1632986807146","36","","","boat","null","false","","","0.35","1","3","0.2","filler","F","","","boat","0.9050807356834412","[object SpeechRecognitionResultList]"
"1338","","html-speech-API-response","111","407065","0.0-4.107-0.107","4","dutch","zad56wz01cb4u61","{""user_agent"":""Mozilla/5.0 (Macintosh; Intel Mac OS X 10_15_7) AppleWebKit/537.36 (KHTML, like Gecko) Chrome/94.0.4606.61 Safari/537.36"",""on_chrome"":true,""on_mobile"":false,""language"":""nl-NL"",""screen_resolution"":[1440,900],""platform"":""MacIntel"",""timezone"":""Europe/Amsterdam""}","","","","1632986810513","36","","","boat","null","false","","","0.35","1","3","0.2","filler","F","","","boat","0.9051117897033691","[object SpeechRecognitionResultList]"
"1250","","html-speech-API-response","112","410821","0.0-4.108-0.108","4","dutch","zad56wz01cb4u61","{""user_agent"":""Mozilla/5.0 (Macintosh; Intel Mac OS X 10_15_7) AppleWebKit/537.36 (KHTML, like Gecko) Chrome/94.0.4606.61 Safari/537.36"",""on_chrome"":true,""on_mobile"":false,""language"":""nl-NL"",""screen_resolution"":[1440,900],""platform"":""MacIntel"",""timezone"":""Europe/Amsterdam""}","","","","1632986814234","37","","","donkey","null","true","","","0.35","1","3","0.2","filler","F","","","donkey","0.8641573786735535","[object SpeechRecognitionResultList]"
"1061","","html-speech-API-response","113","414268","0.0-4.109-0.109","4","dutch","zad56wz01cb4u61","{""user_agent"":""Mozilla/5.0 (Macintosh; Intel Mac OS X 10_15_7) AppleWebKit/537.36 (KHTML, like Gecko) Chrome/94.0.4606.61 Safari/537.36"",""on_chrome"":true,""on_mobile"":false,""language"":""nl-NL"",""screen_resolution"":[1440,900],""platform"":""MacIntel"",""timezone"":""Europe/Amsterdam""}","","","","1632986817991","37","","","donkey","null","false","","","0.35","1","3","0.2","filler","F","","","donkey","0.8656296730041504","[object SpeechRecognitionResultList]"
"1341","","html-speech-API-response","114","418068","0.0-4.110-0.110","4","dutch","zad56wz01cb4u61","{""user_agent"":""Mozilla/5.0 (Macintosh; Intel Mac OS X 10_15_7) AppleWebKit/537.36 (KHTML, like Gecko) Chrome/94.0.4606.61 Safari/537.36"",""on_chrome"":true,""on_mobile"":false,""language"":""nl-NL"",""screen_resolution"":[1440,900],""platform"":""MacIntel"",""timezone"":""Europe/Amsterdam""}","","","","1632986821438","37","","","donkey","null","false","","","0.35","1","3","0.2","filler","F","","","donkey","0.8625698089599609","[object SpeechRecognitionResultList]"
"1248","","html-speech-API-response","115","421635","0.0-4.111-0.111","4","dutch","zad56wz01cb4u61","{""user_agent"":""Mozilla/5.0 (Macintosh; Intel Mac OS X 10_15_7) AppleWebKit/537.36 (KHTML, like Gecko) Chrome/94.0.4606.61 Safari/537.36"",""on_chrome"":true,""on_mobile"":false,""language"":""nl-NL"",""screen_resolution"":[1440,900],""platform"":""MacIntel"",""timezone"":""Europe/Amsterdam""}","","","","1632986825238","38","","","sleep","null","true","","","0.35","1","3","0.2","filler","F","","","sleep","0.9213501811027527","[object SpeechRecognitionResultList]"
"1060","","html-speech-API-response","116","425072","0.0-4.112-0.112","4","dutch","zad56wz01cb4u61","{""user_agent"":""Mozilla/5.0 (Macintosh; Intel Mac OS X 10_15_7) AppleWebKit/537.36 (KHTML, like Gecko) Chrome/94.0.4606.61 Safari/537.36"",""on_chrome"":true,""on_mobile"":false,""language"":""nl-NL"",""screen_resolution"":[1440,900],""platform"":""MacIntel"",""timezone"":""Europe/Amsterdam""}","","","","1632986828807","38","","","sleep","null","false","","","0.35","1","3","0.2","filler","F","","","sleep","0.921356201171875","[object SpeechRecognitionResultList]"
"968","","html-speech-API-response","117","428469","0.0-4.113-0.113","4","dutch","zad56wz01cb4u61","{""user_agent"":""Mozilla/5.0 (Macintosh; Intel Mac OS X 10_15_7) AppleWebKit/537.36 (KHTML, like Gecko) Chrome/94.0.4606.61 Safari/537.36"",""on_chrome"":true,""on_mobile"":false,""language"":""nl-NL"",""screen_resolution"":[1440,900],""platform"":""MacIntel"",""timezone"":""Europe/Amsterdam""}","","","","1632986832241","38","","","sleep","null","false","","","0.35","1","3","0.2","filler","F","","","sleep","0.9213721752166748","[object SpeechRecognitionResultList]"
"1065","","html-speech-API-response","118","431853","0.0-4.114-0.114","4","dutch","zad56wz01cb4u61","{""user_agent"":""Mozilla/5.0 (Macintosh; Intel Mac OS X 10_15_7) AppleWebKit/537.36 (KHTML, like Gecko) Chrome/94.0.4606.61 Safari/537.36"",""on_chrome"":true,""on_mobile"":false,""language"":""nl-NL"",""screen_resolution"":[1440,900],""platform"":""MacIntel"",""timezone"":""Europe/Amsterdam""}","","","","1632986835639","39","","","lake","null","true","","","0.35","1","3","0.2","filler","F","","","Lake","0.7382805943489075","[object SpeechRecognitionResultList]"
"1060","","html-speech-API-response","119","435273","0.0-4.115-0.115","4","dutch","zad56wz01cb4u61","{""user_agent"":""Mozilla/5.0 (Macintosh; Intel Mac OS X 10_15_7) AppleWebKit/537.36 (KHTML, like Gecko) Chrome/94.0.4606.61 Safari/537.36"",""on_chrome"":true,""on_mobile"":false,""language"":""nl-NL"",""screen_resolution"":[1440,900],""platform"":""MacIntel"",""timezone"":""Europe/Amsterdam""}","","","","1632986839023","39","","","lake","null","false","","","0.35","1","3","0.2","filler","F","","","Lake","0.8288212418556213","[object SpeechRecognitionResultList]"
"1711","","html-speech-API-response","120","439789","0.0-4.116-0.116","4","dutch","zad56wz01cb4u61","{""user_agent"":""Mozilla/5.0 (Macintosh; Intel Mac OS X 10_15_7) AppleWebKit/537.36 (KHTML, like Gecko) Chrome/94.0.4606.61 Safari/537.36"",""on_chrome"":true,""on_mobile"":false,""language"":""nl-NL"",""screen_resolution"":[1440,900],""platform"":""MacIntel"",""timezone"":""Europe/Amsterdam""}","","","","1632986842443","39","","","lake","null","false","","","0.35","1","3","0.2","filler","F","","","Lake","0.7815458178520203","[object SpeechRecognitionResultList]"
"1062","","html-speech-API-response","121","443348","0.0-4.117-0.117","4","dutch","zad56wz01cb4u61","{""user_agent"":""Mozilla/5.0 (Macintosh; Intel Mac OS X 10_15_7) AppleWebKit/537.36 (KHTML, like Gecko) Chrome/94.0.4606.61 Safari/537.36"",""on_chrome"":true,""on_mobile"":false,""language"":""nl-NL"",""screen_resolution"":[1440,900],""platform"":""MacIntel"",""timezone"":""Europe/Amsterdam""}","","","","1632986846959","40","","","science","null","true","","","0.35","1","3","0.2","filler","F","","","science","0.8835158348083496","[object SpeechRecognitionResultList]"
"1151","","html-speech-API-response","122","446997","0.0-4.118-0.118","4","dutch","zad56wz01cb4u61","{""user_agent"":""Mozilla/5.0 (Macintosh; Intel Mac OS X 10_15_7) AppleWebKit/537.36 (KHTML, like Gecko) Chrome/94.0.4606.61 Safari/537.36"",""on_chrome"":true,""on_mobile"":false,""language"":""nl-NL"",""screen_resolution"":[1440,900],""platform"":""MacIntel"",""timezone"":""Europe/Amsterdam""}","","","","1632986850518","40","","","science","null","false","","","0.35","1","3","0.2","filler","F","","","science","0.8834845423698425","[object SpeechRecognitionResultList]"
"1155","","html-speech-API-response","123","450951","0.0-4.119-0.119","4","dutch","zad56wz01cb4u61","{""user_agent"":""Mozilla/5.0 (Macintosh; Intel Mac OS X 10_15_7) AppleWebKit/537.36 (KHTML, like Gecko) Chrome/94.0.4606.61 Safari/537.36"",""on_chrome"":true,""on_mobile"":false,""language"":""nl-NL"",""screen_resolution"":[1440,900],""platform"":""MacIntel"",""timezone"":""Europe/Amsterdam""}","","","","1632986854167","40","","","science","null","false","","","0.35","1","3","0.2","filler","F","","","science","0.8834856152534485","[object SpeechRecognitionResultList]"
"1253","","html-speech-API-response","124","454767","0.0-4.120-0.120","4","dutch","zad56wz01cb4u61","{""user_agent"":""Mozilla/5.0 (Macintosh; Intel Mac OS X 10_15_7) AppleWebKit/537.36 (KHTML, like Gecko) Chrome/94.0.4606.61 Safari/537.36"",""on_chrome"":true,""on_mobile"":false,""language"":""nl-NL"",""screen_resolution"":[1440,900],""platform"":""MacIntel"",""timezone"":""Europe/Amsterdam""}","","","","1632986858123","41","","","olives","null","true","","","0.35","1","3","0.2","filler","F","","","olives","0.9546766877174377","[object SpeechRecognitionResultList]"
"1154","","html-speech-API-response","125","458299","0.0-4.121-0.121","4","dutch","zad56wz01cb4u61","{""user_agent"":""Mozilla/5.0 (Macintosh; Intel Mac OS X 10_15_7) AppleWebKit/537.36 (KHTML, like Gecko) Chrome/94.0.4606.61 Safari/537.36"",""on_chrome"":true,""on_mobile"":false,""language"":""nl-NL"",""screen_resolution"":[1440,900],""platform"":""MacIntel"",""timezone"":""Europe/Amsterdam""}","","","","1632986861936","41","","","olives","null","false","","","0.35","1","3","0.2","filler","F","","","olives","0.9546766877174377","[object SpeechRecognitionResultList]"
"1527","","html-speech-API-response","126","461958","0.0-4.122-0.122","4","dutch","zad56wz01cb4u61","{""user_agent"":""Mozilla/5.0 (Macintosh; Intel Mac OS X 10_15_7) AppleWebKit/537.36 (KHTML, like Gecko) Chrome/94.0.4606.61 Safari/537.36"",""on_chrome"":true,""on_mobile"":false,""language"":""nl-NL"",""screen_resolution"":[1440,900],""platform"":""MacIntel"",""timezone"":""Europe/Amsterdam""}","","","","1632986865469","41","","","olives","null","false","","","0.35","1","3","0.2","filler","F","","","olives","0.9546766877174377","[object SpeechRecognitionResultList]"
"1525","","html-speech-API-response","127","465761","0.0-4.123-0.123","4","dutch","zad56wz01cb4u61","{""user_agent"":""Mozilla/5.0 (Macintosh; Intel Mac OS X 10_15_7) AppleWebKit/537.36 (KHTML, like Gecko) Chrome/94.0.4606.61 Safari/537.36"",""on_chrome"":true,""on_mobile"":false,""language"":""nl-NL"",""screen_resolution"":[1440,900],""platform"":""MacIntel"",""timezone"":""Europe/Amsterdam""}","","","","1632986869129","42","","","honour","null","true","","","0.35","1","3","0.2","filler","F","","","honour","0.9498289823532104","[object SpeechRecognitionResultList]"
"1248","","html-speech-API-response","128","469369","0.0-4.124-0.124","4","dutch","zad56wz01cb4u61","{""user_agent"":""Mozilla/5.0 (Macintosh; Intel Mac OS X 10_15_7) AppleWebKit/537.36 (KHTML, like Gecko) Chrome/94.0.4606.61 Safari/537.36"",""on_chrome"":true,""on_mobile"":false,""language"":""nl-NL"",""screen_resolution"":[1440,900],""platform"":""MacIntel"",""timezone"":""Europe/Amsterdam""}","","","","1632986872931","42","","","honour","null","false","","","0.35","1","3","0.2","filler","F","","","honour","0.807114839553833","[object SpeechRecognitionResultList]"
"1337","","html-speech-API-response","129","473049","0.0-4.125-0.125","4","dutch","zad56wz01cb4u61","{""user_agent"":""Mozilla/5.0 (Macintosh; Intel Mac OS X 10_15_7) AppleWebKit/537.36 (KHTML, like Gecko) Chrome/94.0.4606.61 Safari/537.36"",""on_chrome"":true,""on_mobile"":false,""language"":""nl-NL"",""screen_resolution"":[1440,900],""platform"":""MacIntel"",""timezone"":""Europe/Amsterdam""}","","","","1632986876540","42","","","honour","null","false","","","0.35","1","3","0.2","filler","F","","","honour","0.8435957431793213","[object SpeechRecognitionResultList]"
"1529","","html-speech-API-response","130","477046","0.0-4.126-0.126","4","dutch","zad56wz01cb4u61","{""user_agent"":""Mozilla/5.0 (Macintosh; Intel Mac OS X 10_15_7) AppleWebKit/537.36 (KHTML, like Gecko) Chrome/94.0.4606.61 Safari/537.36"",""on_chrome"":true,""on_mobile"":false,""language"":""nl-NL"",""screen_resolution"":[1440,900],""platform"":""MacIntel"",""timezone"":""Europe/Amsterdam""}","","","","1632986880220","43","","","enemy","null","true","","","0.35","1","3","0.2","filler","F","","","anime","0.6888130903244019","[object SpeechRecognitionResultList]"
"1061","","html-speech-API-response","131","480556","0.0-4.127-0.127","4","dutch","zad56wz01cb4u61","{""user_agent"":""Mozilla/5.0 (Macintosh; Intel Mac OS X 10_15_7) AppleWebKit/537.36 (KHTML, like Gecko) Chrome/94.0.4606.61 Safari/537.36"",""on_chrome"":true,""on_mobile"":false,""language"":""nl-NL"",""screen_resolution"":[1440,900],""platform"":""MacIntel"",""timezone"":""Europe/Amsterdam""}","","","","1632986884217","43","","","enemy","null","false","","","0.35","1","3","0.2","filler","F","","","anime","0.7719898223876953","[object SpeechRecognitionResultList]"
"875","","html-speech-API-response","132","483946","0.0-4.128-0.128","4","dutch","zad56wz01cb4u61","{""user_agent"":""Mozilla/5.0 (Macintosh; Intel Mac OS X 10_15_7) AppleWebKit/537.36 (KHTML, like Gecko) Chrome/94.0.4606.61 Safari/537.36"",""on_chrome"":true,""on_mobile"":false,""language"":""nl-NL"",""screen_resolution"":[1440,900],""platform"":""MacIntel"",""timezone"":""Europe/Amsterdam""}","","","","1632986887726","43","","","enemy","null","false","","","0.35","1","3","0.2","filler","F","","","anime","0.9546766877174377","[object SpeechRecognitionResultList]"
"1154","","html-speech-API-response","133","487642","0.0-4.129-0.129","4","dutch","zad56wz01cb4u61","{""user_agent"":""Mozilla/5.0 (Macintosh; Intel Mac OS X 10_15_7) AppleWebKit/537.36 (KHTML, like Gecko) Chrome/94.0.4606.61 Safari/537.36"",""on_chrome"":true,""on_mobile"":false,""language"":""nl-NL"",""screen_resolution"":[1440,900],""platform"":""MacIntel"",""timezone"":""Europe/Amsterdam""}","","","","1632986891117","44","","","garden","null","true","","","0.35","1","3","0.2","filler","F","","","garden","0.8665484189987183","[object SpeechRecognitionResultList]"
"968","","html-speech-API-response","134","491015","0.0-4.130-0.130","4","dutch","zad56wz01cb4u61","{""user_agent"":""Mozilla/5.0 (Macintosh; Intel Mac OS X 10_15_7) AppleWebKit/537.36 (KHTML, like Gecko) Chrome/94.0.4606.61 Safari/537.36"",""on_chrome"":true,""on_mobile"":false,""language"":""nl-NL"",""screen_resolution"":[1440,900],""platform"":""MacIntel"",""timezone"":""Europe/Amsterdam""}","","","","1632986894813","44","","","garden","null","false","","","0.35","1","3","0.2","filler","F","","","garden","0.8728552460670471","[object SpeechRecognitionResultList]"
"1062","","html-speech-API-response","135","494608","0.0-4.131-0.131","4","dutch","zad56wz01cb4u61","{""user_agent"":""Mozilla/5.0 (Macintosh; Intel Mac OS X 10_15_7) AppleWebKit/537.36 (KHTML, like Gecko) Chrome/94.0.4606.61 Safari/537.36"",""on_chrome"":true,""on_mobile"":false,""language"":""nl-NL"",""screen_resolution"":[1440,900],""platform"":""MacIntel"",""timezone"":""Europe/Amsterdam""}","","","","1632986898186","44","","","garden","null","false","","","0.35","1","3","0.2","filler","F","","","garden","0.8687092065811157","[object SpeechRecognitionResultList]"
"1251","","html-speech-API-response","136","498400","0.0-4.132-0.132","4","dutch","zad56wz01cb4u61","{""user_agent"":""Mozilla/5.0 (Macintosh; Intel Mac OS X 10_15_7) AppleWebKit/537.36 (KHTML, like Gecko) Chrome/94.0.4606.61 Safari/537.36"",""on_chrome"":true,""on_mobile"":false,""language"":""nl-NL"",""screen_resolution"":[1440,900],""platform"":""MacIntel"",""timezone"":""Europe/Amsterdam""}","","","","1632986901779","45","","","treasure","null","true","","","0.35","1","3","0.2","filler","F","","","treasure","0.8424348831176758","[object SpeechRecognitionResultList]"
"1154","","html-speech-API-response","137","501966","0.0-4.133-0.133","4","dutch","zad56wz01cb4u61","{""user_agent"":""Mozilla/5.0 (Macintosh; Intel Mac OS X 10_15_7) AppleWebKit/537.36 (KHTML, like Gecko) Chrome/94.0.4606.61 Safari/537.36"",""on_chrome"":true,""on_mobile"":false,""language"":""nl-NL"",""screen_resolution"":[1440,900],""platform"":""MacIntel"",""timezone"":""Europe/Amsterdam""}","","","","1632986905571","45","","","treasure","null","false","","","0.35","1","3","0.2","filler","F","","","treasure","0.8424348831176758","[object SpeechRecognitionResultList]"
"1154","","html-speech-API-response","138","505688","0.0-4.134-0.134","4","dutch","zad56wz01cb4u61","{""user_agent"":""Mozilla/5.0 (Macintosh; Intel Mac OS X 10_15_7) AppleWebKit/537.36 (KHTML, like Gecko) Chrome/94.0.4606.61 Safari/537.36"",""on_chrome"":true,""on_mobile"":false,""language"":""nl-NL"",""screen_resolution"":[1440,900],""platform"":""MacIntel"",""timezone"":""Europe/Amsterdam""}","","","","1632986909136","45","","","treasure","null","false","","","0.35","1","3","0.2","filler","F","","","treasure","0.8424349427223206","[object SpeechRecognitionResultList]"
"1155","","html-speech-API-response","139","509192","0.0-4.135-0.135","4","dutch","zad56wz01cb4u61","{""user_agent"":""Mozilla/5.0 (Macintosh; Intel Mac OS X 10_15_7) AppleWebKit/537.36 (KHTML, like Gecko) Chrome/94.0.4606.61 Safari/537.36"",""on_chrome"":true,""on_mobile"":false,""language"":""nl-NL"",""screen_resolution"":[1440,900],""platform"":""MacIntel"",""timezone"":""Europe/Amsterdam""}","","","","1632986912859","46","","","mango","null","true","","","0.35","1","3","0.2","filler","F","","","mango","0.9546766877174377","[object SpeechRecognitionResultList]"
"967","","html-speech-API-response","140","512796","0.0-4.136-0.136","4","dutch","zad56wz01cb4u61","{""user_agent"":""Mozilla/5.0 (Macintosh; Intel Mac OS X 10_15_7) AppleWebKit/537.36 (KHTML, like Gecko) Chrome/94.0.4606.61 Safari/537.36"",""on_chrome"":true,""on_mobile"":false,""language"":""nl-NL"",""screen_resolution"":[1440,900],""platform"":""MacIntel"",""timezone"":""Europe/Amsterdam""}","","","","1632986916361","46","","","mango","null","false","","","0.35","1","3","0.2","filler","F","","","mango","0.9546766877174377","[object SpeechRecognitionResultList]"
"1340","","html-speech-API-response","141","516554","0.0-4.137-0.137","4","dutch","zad56wz01cb4u61","{""user_agent"":""Mozilla/5.0 (Macintosh; Intel Mac OS X 10_15_7) AppleWebKit/537.36 (KHTML, like Gecko) Chrome/94.0.4606.61 Safari/537.36"",""on_chrome"":true,""on_mobile"":false,""language"":""nl-NL"",""screen_resolution"":[1440,900],""platform"":""MacIntel"",""timezone"":""Europe/Amsterdam""}","","","","1632986919966","46","","","mango","null","false","","","0.35","1","3","0.2","filler","F","","","mango","0.9546766877174377","[object SpeechRecognitionResultList]"
"1251","","html-speech-API-response","142","520167","0.0-4.138-0.138","4","dutch","zad56wz01cb4u61","{""user_agent"":""Mozilla/5.0 (Macintosh; Intel Mac OS X 10_15_7) AppleWebKit/537.36 (KHTML, like Gecko) Chrome/94.0.4606.61 Safari/537.36"",""on_chrome"":true,""on_mobile"":false,""language"":""nl-NL"",""screen_resolution"":[1440,900],""platform"":""MacIntel"",""timezone"":""Europe/Amsterdam""}","","","","1632986923724","47","","","prophet","null","true","","","0.35","1","3","0.2","filler","F","","","profit","0.8029214143753052","[object SpeechRecognitionResultList]"
"1063","","html-speech-API-response","143","523571","0.0-4.139-0.139","4","dutch","zad56wz01cb4u61","{""user_agent"":""Mozilla/5.0 (Macintosh; Intel Mac OS X 10_15_7) AppleWebKit/537.36 (KHTML, like Gecko) Chrome/94.0.4606.61 Safari/537.36"",""on_chrome"":true,""on_mobile"":false,""language"":""nl-NL"",""screen_resolution"":[1440,900],""platform"":""MacIntel"",""timezone"":""Europe/Amsterdam""}","","","","1632986927338","47","","","prophet","null","false","","","0.35","1","3","0.2","filler","F","","","profit","0.8029224872589111","[object SpeechRecognitionResultList]"
"1156","","html-speech-API-response","144","527050","0.0-4.140-0.140","4","dutch","zad56wz01cb4u61","{""user_agent"":""Mozilla/5.0 (Macintosh; Intel Mac OS X 10_15_7) AppleWebKit/537.36 (KHTML, like Gecko) Chrome/94.0.4606.61 Safari/537.36"",""on_chrome"":true,""on_mobile"":false,""language"":""nl-NL"",""screen_resolution"":[1440,900],""platform"":""MacIntel"",""timezone"":""Europe/Amsterdam""}","","","","1632986930741","47","","","prophet","null","false","","","0.35","1","3","0.2","filler","F","","","profit","0.8029223680496216","[object SpeechRecognitionResultList]"
"880","","html-speech-API-response","145","530789","0.0-4.141-0.141","4","dutch","zad56wz01cb4u61","{""user_agent"":""Mozilla/5.0 (Macintosh; Intel Mac OS X 10_15_7) AppleWebKit/537.36 (KHTML, like Gecko) Chrome/94.0.4606.61 Safari/537.36"",""on_chrome"":true,""on_mobile"":false,""language"":""nl-NL"",""screen_resolution"":[1440,900],""platform"":""MacIntel"",""timezone"":""Europe/Amsterdam""}","","","","1632986934221","48","","","lung","null","true","","","0.35","1","3","0.2","filler","F","","","lung","0.801895797252655","[object SpeechRecognitionResultList]"
"1063","","html-speech-API-response","146","534275","0.0-4.142-0.142","4","dutch","zad56wz01cb4u61","{""user_agent"":""Mozilla/5.0 (Macintosh; Intel Mac OS X 10_15_7) AppleWebKit/537.36 (KHTML, like Gecko) Chrome/94.0.4606.61 Safari/537.36"",""on_chrome"":true,""on_mobile"":false,""language"":""nl-NL"",""screen_resolution"":[1440,900],""platform"":""MacIntel"",""timezone"":""Europe/Amsterdam""}","","","","1632986937959","48","","","lung","null","false","","","0.35","1","3","0.2","filler","F","","","loan","0.9546766877174377","[object SpeechRecognitionResultList]"
"1155","","html-speech-API-response","147","537716","0.0-4.143-0.143","4","dutch","zad56wz01cb4u61","{""user_agent"":""Mozilla/5.0 (Macintosh; Intel Mac OS X 10_15_7) AppleWebKit/537.36 (KHTML, like Gecko) Chrome/94.0.4606.61 Safari/537.36"",""on_chrome"":true,""on_mobile"":false,""language"":""nl-NL"",""screen_resolution"":[1440,900],""platform"":""MacIntel"",""timezone"":""Europe/Amsterdam""}","","","","1632986941445","48","","","lung","null","false","","","0.35","1","3","0.2","filler","F","","","lung","0.8449389934539795","[object SpeechRecognitionResultList]"
"1342","","html-speech-API-response","148","541399","0.0-4.144-0.144","4","dutch","zad56wz01cb4u61","{""user_agent"":""Mozilla/5.0 (Macintosh; Intel Mac OS X 10_15_7) AppleWebKit/537.36 (KHTML, like Gecko) Chrome/94.0.4606.61 Safari/537.36"",""on_chrome"":true,""on_mobile"":false,""language"":""nl-NL"",""screen_resolution"":[1440,900],""platform"":""MacIntel"",""timezone"":""Europe/Amsterdam""}","","","","1632986944887","49","","","cotton","null","true","","","0.35","1","3","0.2","filler","F","","","Cotton","0.6559885144233704","[object SpeechRecognitionResultList]"
"1339","","html-speech-API-response","149","545231","0.0-4.145-0.145","4","dutch","zad56wz01cb4u61","{""user_agent"":""Mozilla/5.0 (Macintosh; Intel Mac OS X 10_15_7) AppleWebKit/537.36 (KHTML, like Gecko) Chrome/94.0.4606.61 Safari/537.36"",""on_chrome"":true,""on_mobile"":false,""language"":""nl-NL"",""screen_resolution"":[1440,900],""platform"":""MacIntel"",""timezone"":""Europe/Amsterdam""}","","","","1632986948569","49","","","cotton","null","false","","","0.35","1","3","0.2","filler","F","","","gotten","0.9265801906585693","[object SpeechRecognitionResultList]"
"1246","","html-speech-API-response","150","548880","0.0-4.146-0.146","4","dutch","zad56wz01cb4u61","{""user_agent"":""Mozilla/5.0 (Macintosh; Intel Mac OS X 10_15_7) AppleWebKit/537.36 (KHTML, like Gecko) Chrome/94.0.4606.61 Safari/537.36"",""on_chrome"":true,""on_mobile"":false,""language"":""nl-NL"",""screen_resolution"":[1440,900],""platform"":""MacIntel"",""timezone"":""Europe/Amsterdam""}","","","","1632986952402","49","","","cotton","null","false","","","0.35","1","3","0.2","filler","F","","","gotten","0.2176963835954666","[object SpeechRecognitionResultList]"
"1342","","html-speech-API-response","151","552690","0.0-4.147-0.147","4","dutch","zad56wz01cb4u61","{""user_agent"":""Mozilla/5.0 (Macintosh; Intel Mac OS X 10_15_7) AppleWebKit/537.36 (KHTML, like Gecko) Chrome/94.0.4606.61 Safari/537.36"",""on_chrome"":true,""on_mobile"":false,""language"":""nl-NL"",""screen_resolution"":[1440,900],""platform"":""MacIntel"",""timezone"":""Europe/Amsterdam""}","","","","1632986956051","50","","","manure","null","true","","","0.35","1","3","0.2","filler","F","","","manure","0.9546766877174377","[object SpeechRecognitionResultList]"
"969","","html-speech-API-response","152","556297","0.0-4.148-0.148","4","dutch","zad56wz01cb4u61","{""user_agent"":""Mozilla/5.0 (Macintosh; Intel Mac OS X 10_15_7) AppleWebKit/537.36 (KHTML, like Gecko) Chrome/94.0.4606.61 Safari/537.36"",""on_chrome"":true,""on_mobile"":false,""language"":""nl-NL"",""screen_resolution"":[1440,900],""platform"":""MacIntel"",""timezone"":""Europe/Amsterdam""}","","","","1632986959861","50","","","manure","null","false","","","0.35","1","3","0.2","filler","F","","","manure","0.9546766877174377","[object SpeechRecognitionResultList]"
"1154","","html-speech-API-response","153","559962","0.0-4.149-0.149","4","dutch","zad56wz01cb4u61","{""user_agent"":""Mozilla/5.0 (Macintosh; Intel Mac OS X 10_15_7) AppleWebKit/537.36 (KHTML, like Gecko) Chrome/94.0.4606.61 Safari/537.36"",""on_chrome"":true,""on_mobile"":false,""language"":""nl-NL"",""screen_resolution"":[1440,900],""platform"":""MacIntel"",""timezone"":""Europe/Amsterdam""}","","","","1632986963468","50","","","manure","null","false","","","0.35","1","3","0.2","filler","F","","","manure","0.9546766877174377","[object SpeechRecognitionResultList]"
"1341","","html-speech-API-response","154","563764","0.0-4.150-0.150","4","dutch","zad56wz01cb4u61","{""user_agent"":""Mozilla/5.0 (Macintosh; Intel Mac OS X 10_15_7) AppleWebKit/537.36 (KHTML, like Gecko) Chrome/94.0.4606.61 Safari/537.36"",""on_chrome"":true,""on_mobile"":false,""language"":""nl-NL"",""screen_resolution"":[1440,900],""platform"":""MacIntel"",""timezone"":""Europe/Amsterdam""}","","","","1632986967133","51","","","sailor","null","true","","","0.35","1","3","0.2","filler","F","","","sailor","0.9546766877174377","[object SpeechRecognitionResultList]"
"1249","","html-speech-API-response","155","567515","0.0-4.151-0.151","4","dutch","zad56wz01cb4u61","{""user_agent"":""Mozilla/5.0 (Macintosh; Intel Mac OS X 10_15_7) AppleWebKit/537.36 (KHTML, like Gecko) Chrome/94.0.4606.61 Safari/537.36"",""on_chrome"":true,""on_mobile"":false,""language"":""nl-NL"",""screen_resolution"":[1440,900],""platform"":""MacIntel"",""timezone"":""Europe/Amsterdam""}","","","","1632986970934","51","","","sailor","null","false","","","0.35","1","3","0.2","filler","F","","","sailor","0.9546766877174377","[object SpeechRecognitionResultList]"
"1339","","html-speech-API-response","156","571446","0.0-4.152-0.152","4","dutch","zad56wz01cb4u61","{""user_agent"":""Mozilla/5.0 (Macintosh; Intel Mac OS X 10_15_7) AppleWebKit/537.36 (KHTML, like Gecko) Chrome/94.0.4606.61 Safari/537.36"",""on_chrome"":true,""on_mobile"":false,""language"":""nl-NL"",""screen_resolution"":[1440,900],""platform"":""MacIntel"",""timezone"":""Europe/Amsterdam""}","","","","1632986974686","51","","","sailor","null","false","","","0.35","1","3","0.2","filler","F","","","sailor","0.9546766877174377","[object SpeechRecognitionResultList]"
"1063","","html-speech-API-response","157","575590","0.0-4.153-0.153","4","dutch","zad56wz01cb4u61","{""user_agent"":""Mozilla/5.0 (Macintosh; Intel Mac OS X 10_15_7) AppleWebKit/537.36 (KHTML, like Gecko) Chrome/94.0.4606.61 Safari/537.36"",""on_chrome"":true,""on_mobile"":false,""language"":""nl-NL"",""screen_resolution"":[1440,900],""platform"":""MacIntel"",""timezone"":""Europe/Amsterdam""}","","","","1632986978617","52","","","society","null","true","","","0.35","1","3","0.2","filler","F","","","Society","0.7645426988601685","[object SpeechRecognitionResultList]"
"1061","","html-speech-API-response","158","579173","0.0-4.154-0.154","4","dutch","zad56wz01cb4u61","{""user_agent"":""Mozilla/5.0 (Macintosh; Intel Mac OS X 10_15_7) AppleWebKit/537.36 (KHTML, like Gecko) Chrome/94.0.4606.61 Safari/537.36"",""on_chrome"":true,""on_mobile"":false,""language"":""nl-NL"",""screen_resolution"":[1440,900],""platform"":""MacIntel"",""timezone"":""Europe/Amsterdam""}","","","","1632986982761","52","","","society","null","false","","","0.35","1","3","0.2","filler","F","","","Society","0.8412838578224182","[object SpeechRecognitionResultList]"
"1155","","html-speech-API-response","159","582958","0.0-4.155-0.155","4","dutch","zad56wz01cb4u61","{""user_agent"":""Mozilla/5.0 (Macintosh; Intel Mac OS X 10_15_7) AppleWebKit/537.36 (KHTML, like Gecko) Chrome/94.0.4606.61 Safari/537.36"",""on_chrome"":true,""on_mobile"":false,""language"":""nl-NL"",""screen_resolution"":[1440,900],""platform"":""MacIntel"",""timezone"":""Europe/Amsterdam""}","","","","1632986986344","52","","","society","null","false","","","0.35","1","3","0.2","filler","F","","","Society","0.8412838578224182","[object SpeechRecognitionResultList]"
"1156","","html-speech-API-response","160","586441","0.0-4.156-0.156","4","dutch","zad56wz01cb4u61","{""user_agent"":""Mozilla/5.0 (Macintosh; Intel Mac OS X 10_15_7) AppleWebKit/537.36 (KHTML, like Gecko) Chrome/94.0.4606.61 Safari/537.36"",""on_chrome"":true,""on_mobile"":false,""language"":""nl-NL"",""screen_resolution"":[1440,900],""platform"":""MacIntel"",""timezone"":""Europe/Amsterdam""}","","","","1632986990128","53","","","leaf","null","true","","","0.35","1","3","0.2","filler","F","","","leaf","0.7943630814552307","[object SpeechRecognitionResultList]"
"1061","","html-speech-API-response","161","589898","0.0-4.157-0.157","4","dutch","zad56wz01cb4u61","{""user_agent"":""Mozilla/5.0 (Macintosh; Intel Mac OS X 10_15_7) AppleWebKit/537.36 (KHTML, like Gecko) Chrome/94.0.4606.61 Safari/537.36"",""on_chrome"":true,""on_mobile"":false,""language"":""nl-NL"",""screen_resolution"":[1440,900],""platform"":""MacIntel"",""timezone"":""Europe/Amsterdam""}","","","","1632986993612","53","","","leaf","null","false","","","0.35","1","3","0.2","filler","F","","","leaf","0.8063592314720154","[object SpeechRecognitionResultList]"
"1156","","html-speech-API-response","162","593415","0.0-4.158-0.158","4","dutch","zad56wz01cb4u61","{""user_agent"":""Mozilla/5.0 (Macintosh; Intel Mac OS X 10_15_7) AppleWebKit/537.36 (KHTML, like Gecko) Chrome/94.0.4606.61 Safari/537.36"",""on_chrome"":true,""on_mobile"":false,""language"":""nl-NL"",""screen_resolution"":[1440,900],""platform"":""MacIntel"",""timezone"":""Europe/Amsterdam""}","","","","1632986997068","53","","","leaf","null","false","","","0.35","1","3","0.2","filler","F","","","leaf","0.8077406287193298","[object SpeechRecognitionResultList]"
"1342","","html-speech-API-response","163","597229","0.0-4.159-0.159","4","dutch","zad56wz01cb4u61","{""user_agent"":""Mozilla/5.0 (Macintosh; Intel Mac OS X 10_15_7) AppleWebKit/537.36 (KHTML, like Gecko) Chrome/94.0.4606.61 Safari/537.36"",""on_chrome"":true,""on_mobile"":false,""language"":""nl-NL"",""screen_resolution"":[1440,900],""platform"":""MacIntel"",""timezone"":""Europe/Amsterdam""}","","","","1632987000586","54","","","frog","null","true","","","0.35","1","3","0.2","filler","F","","","frog","0.7382609248161316","[object SpeechRecognitionResultList]"
"1154","","html-speech-API-response","164","600798","0.0-4.160-0.160","4","dutch","zad56wz01cb4u61","{""user_agent"":""Mozilla/5.0 (Macintosh; Intel Mac OS X 10_15_7) AppleWebKit/537.36 (KHTML, like Gecko) Chrome/94.0.4606.61 Safari/537.36"",""on_chrome"":true,""on_mobile"":false,""language"":""nl-NL"",""screen_resolution"":[1440,900],""platform"":""MacIntel"",""timezone"":""Europe/Amsterdam""}","","","","1632987004398","54","","","frog","null","false","","","0.35","1","3","0.2","filler","F","","","frog","0.7419293522834778","[object SpeechRecognitionResultList]"
"1340","","html-speech-API-response","165","604501","0.0-4.161-0.161","4","dutch","zad56wz01cb4u61","{""user_agent"":""Mozilla/5.0 (Macintosh; Intel Mac OS X 10_15_7) AppleWebKit/537.36 (KHTML, like Gecko) Chrome/94.0.4606.61 Safari/537.36"",""on_chrome"":true,""on_mobile"":false,""language"":""nl-NL"",""screen_resolution"":[1440,900],""platform"":""MacIntel"",""timezone"":""Europe/Amsterdam""}","","","","1632987007969","54","","","frog","null","false","","","0.35","1","3","0.2","filler","F","","","frog","0.8039712905883789","[object SpeechRecognitionResultList]"
"1526","","html-speech-API-response","166","608448","0.0-4.162-0.162","4","dutch","zad56wz01cb4u61","{""user_agent"":""Mozilla/5.0 (Macintosh; Intel Mac OS X 10_15_7) AppleWebKit/537.36 (KHTML, like Gecko) Chrome/94.0.4606.61 Safari/537.36"",""on_chrome"":true,""on_mobile"":false,""language"":""nl-NL"",""screen_resolution"":[1440,900],""platform"":""MacIntel"",""timezone"":""Europe/Amsterdam""}","","","","1632987011671","55","","","almond","null","true","","","0.35","1","3","0.2","filler","F","","","almond","0.9546766877174377","[object SpeechRecognitionResultList]"
"1156","","html-speech-API-response","167","612017","0.0-4.163-0.163","4","dutch","zad56wz01cb4u61","{""user_agent"":""Mozilla/5.0 (Macintosh; Intel Mac OS X 10_15_7) AppleWebKit/537.36 (KHTML, like Gecko) Chrome/94.0.4606.61 Safari/537.36"",""on_chrome"":true,""on_mobile"":false,""language"":""nl-NL"",""screen_resolution"":[1440,900],""platform"":""MacIntel"",""timezone"":""Europe/Amsterdam""}","","","","1632987015619","55","","","almond","null","false","","","0.35","1","3","0.2","filler","F","","","almond","0.9546766877174377","[object SpeechRecognitionResultList]"
"1617","","html-speech-API-response","168","616017","0.0-4.164-0.164","4","dutch","zad56wz01cb4u61","{""user_agent"":""Mozilla/5.0 (Macintosh; Intel Mac OS X 10_15_7) AppleWebKit/537.36 (KHTML, like Gecko) Chrome/94.0.4606.61 Safari/537.36"",""on_chrome"":true,""on_mobile"":false,""language"":""nl-NL"",""screen_resolution"":[1440,900],""platform"":""MacIntel"",""timezone"":""Europe/Amsterdam""}","","","","1632987019188","55","","","almond","null","false","","","0.35","1","3","0.2","filler","F","","","and","0.5296573638916016","[object SpeechRecognitionResultList]"
"1620","","html-speech-API-response","169","619823","0.0-4.165-0.165","4","dutch","zad56wz01cb4u61","{""user_agent"":""Mozilla/5.0 (Macintosh; Intel Mac OS X 10_15_7) AppleWebKit/537.36 (KHTML, like Gecko) Chrome/94.0.4606.61 Safari/537.36"",""on_chrome"":true,""on_mobile"":false,""language"":""nl-NL"",""screen_resolution"":[1440,900],""platform"":""MacIntel"",""timezone"":""Europe/Amsterdam""}","","","","1632987023187","56","","","yoke","null","true","","","0.35","1","3","0.2","filler","F","","","yoke","0.746035099029541","[object SpeechRecognitionResultList]"
"1246","","html-speech-API-response","170","623429","0.0-4.166-0.166","4","dutch","zad56wz01cb4u61","{""user_agent"":""Mozilla/5.0 (Macintosh; Intel Mac OS X 10_15_7) AppleWebKit/537.36 (KHTML, like Gecko) Chrome/94.0.4606.61 Safari/537.36"",""on_chrome"":true,""on_mobile"":false,""language"":""nl-NL"",""screen_resolution"":[1440,900],""platform"":""MacIntel"",""timezone"":""Europe/Amsterdam""}","","","","1632987026994","56","","","yoke","null","false","","","0.35","1","3","0.2","filler","F","","","yoke","0.7352257370948792","[object SpeechRecognitionResultList]"
"1155","","html-speech-API-response","171","627019","0.0-4.167-0.167","4","dutch","zad56wz01cb4u61","{""user_agent"":""Mozilla/5.0 (Macintosh; Intel Mac OS X 10_15_7) AppleWebKit/537.36 (KHTML, like Gecko) Chrome/94.0.4606.61 Safari/537.36"",""on_chrome"":true,""on_mobile"":false,""language"":""nl-NL"",""screen_resolution"":[1440,900],""platform"":""MacIntel"",""timezone"":""Europe/Amsterdam""}","","","","1632987030600","56","","","yoke","null","false","","","0.35","1","3","0.2","filler","F","","","yoke","0.8129643201828003","[object SpeechRecognitionResultList]"
"1619","","html-speech-API-response","172","631009","0.0-4.168-0.168","4","dutch","zad56wz01cb4u61","{""user_agent"":""Mozilla/5.0 (Macintosh; Intel Mac OS X 10_15_7) AppleWebKit/537.36 (KHTML, like Gecko) Chrome/94.0.4606.61 Safari/537.36"",""on_chrome"":true,""on_mobile"":false,""language"":""nl-NL"",""screen_resolution"":[1440,900],""platform"":""MacIntel"",""timezone"":""Europe/Amsterdam""}","","","","1632987034190","57","","","agent","null","true","","","0.35","1","3","0.2","filler","F","","","agent","0.836121678352356","[object SpeechRecognitionResultList]"
"1247","","html-speech-API-response","173","634691","0.0-4.169-0.169","4","dutch","zad56wz01cb4u61","{""user_agent"":""Mozilla/5.0 (Macintosh; Intel Mac OS X 10_15_7) AppleWebKit/537.36 (KHTML, like Gecko) Chrome/94.0.4606.61 Safari/537.36"",""on_chrome"":true,""on_mobile"":false,""language"":""nl-NL"",""screen_resolution"":[1440,900],""platform"":""MacIntel"",""timezone"":""Europe/Amsterdam""}","","","","1632987038180","57","","","agent","null","false","","","0.35","1","3","0.2","filler","F","","","agent","0.8361228108406067","[object SpeechRecognitionResultList]"
