"rt","responses","trial_type","trial_index","time_elapsed","internal_node_id","condition","language","subject","browser_info","participant_number","value","view_history","presentation_start_time","id","text","response","answer","correct","study","activation","alpha","mu","kappa","a","b","types","block","reading_time","estimated_rt","transcribed speech signal response","confidence","full results"
"2533","{""Q0"":""""}","survey-text","0","2538","0.0-0.0","4","dutch","w00kfhnnf9mxtar","{""user_agent"":""Mozilla/5.0 (Macintosh; Intel Mac OS X 10_15_7) AppleWebKit/537.36 (KHTML, like Gecko) Chrome/94.0.4606.61 Safari/537.36"",""on_chrome"":true,""on_mobile"":false,""language"":""nl-NL"",""screen_resolution"":[1440,900],""platform"":""MacIntel"",""timezone"":""Europe/Amsterdam""}","","","","","","","","","","","","","","","","","","","","","","",""
"","","call-function","1","2545","0.0-1.0","4","dutch","w00kfhnnf9mxtar","{""user_agent"":""Mozilla/5.0 (Macintosh; Intel Mac OS X 10_15_7) AppleWebKit/537.36 (KHTML, like Gecko) Chrome/94.0.4606.61 Safari/537.36"",""on_chrome"":true,""on_mobile"":false,""language"":""nl-NL"",""screen_resolution"":[1440,900],""platform"":""MacIntel"",""timezone"":""Europe/Amsterdam""}","","","","","","","","","","","","","","","","","","","","","","",""
"416","","instructions","2","2961","0.0-2.0","4","dutch","w00kfhnnf9mxtar","{""user_agent"":""Mozilla/5.0 (Macintosh; Intel Mac OS X 10_15_7) AppleWebKit/537.36 (KHTML, like Gecko) Chrome/94.0.4606.61 Safari/537.36"",""on_chrome"":true,""on_mobile"":false,""language"":""nl-NL"",""screen_resolution"":[1440,900],""platform"":""MacIntel"",""timezone"":""Europe/Amsterdam""}","","","[{""page_index"":0,""viewing_time"":416}]","","","","","","","","","","","","","","","","","","","",""
"","","call-function","3","2962","0.0-3.0","4","dutch","w00kfhnnf9mxtar","{""user_agent"":""Mozilla/5.0 (Macintosh; Intel Mac OS X 10_15_7) AppleWebKit/537.36 (KHTML, like Gecko) Chrome/94.0.4606.61 Safari/537.36"",""on_chrome"":true,""on_mobile"":false,""language"":""nl-NL"",""screen_resolution"":[1440,900],""platform"":""MacIntel"",""timezone"":""Europe/Amsterdam""}","","","","","","","","","","","","","","","","","","","","","","",""
"1281","","html-speech-API-response","4","6988","0.0-4.0-0.0","4","dutch","w00kfhnnf9mxtar","{""user_agent"":""Mozilla/5.0 (Macintosh; Intel Mac OS X 10_15_7) AppleWebKit/537.36 (KHTML, like Gecko) Chrome/94.0.4606.61 Safari/537.36"",""on_chrome"":true,""on_mobile"":false,""language"":""nl-NL"",""screen_resolution"":[1440,900],""platform"":""MacIntel"",""timezone"":""Europe/Amsterdam""}","","","","1632922510289","1","","","dog","null","true","-Infinity","0.35","0.35","1","3","0.2","filler","F","300","Infinity","dog","0.870772123336792","[object SpeechRecognitionResultList]"
"1092","","html-speech-API-response","5","10451","0.0-4.1-0.1","4","dutch","w00kfhnnf9mxtar","{""user_agent"":""Mozilla/5.0 (Macintosh; Intel Mac OS X 10_15_7) AppleWebKit/537.36 (KHTML, like Gecko) Chrome/94.0.4606.61 Safari/537.36"",""on_chrome"":true,""on_mobile"":false,""language"":""nl-NL"",""screen_resolution"":[1440,900],""platform"":""MacIntel"",""timezone"":""Europe/Amsterdam""}","","","","1632922514315","1","","","dog","null","false","-1.0310138663117123","0.35","0.35","1","3","0.2","filler","F","300","3103.9071811150834","dog","0.870772659778595","[object SpeechRecognitionResultList]"
"1000","","html-speech-API-response","6","13724","0.0-4.2-0.2","4","dutch","w00kfhnnf9mxtar","{""user_agent"":""Mozilla/5.0 (Macintosh; Intel Mac OS X 10_15_7) AppleWebKit/537.36 (KHTML, like Gecko) Chrome/94.0.4606.61 Safari/537.36"",""on_chrome"":true,""on_mobile"":false,""language"":""nl-NL"",""screen_resolution"":[1440,900],""platform"":""MacIntel"",""timezone"":""Europe/Amsterdam""}","","","","1632922517778","1","","","dog","null","false","-1.0310138663117123","0.35","0.35","1","3","0.2","filler","F","300","3103.9071811150834","dog","0.8708099126815796","[object SpeechRecognitionResultList]"
"1279","","html-speech-API-response","7","17255","0.0-4.3-0.3","4","dutch","w00kfhnnf9mxtar","{""user_agent"":""Mozilla/5.0 (Macintosh; Intel Mac OS X 10_15_7) AppleWebKit/537.36 (KHTML, like Gecko) Chrome/94.0.4606.61 Safari/537.36"",""on_chrome"":true,""on_mobile"":false,""language"":""nl-NL"",""screen_resolution"":[1440,900],""platform"":""MacIntel"",""timezone"":""Europe/Amsterdam""}","","","","1632922521052","2","","","pearl","null","true","-Infinity","0.35","0.35","1","3","0.2","filler","F","300","Infinity","pearl","0.8103758096694946","[object SpeechRecognitionResultList]"
"909","","html-speech-API-response","8","20522","0.0-4.4-0.4","4","dutch","w00kfhnnf9mxtar","{""user_agent"":""Mozilla/5.0 (Macintosh; Intel Mac OS X 10_15_7) AppleWebKit/537.36 (KHTML, like Gecko) Chrome/94.0.4606.61 Safari/537.36"",""on_chrome"":true,""on_mobile"":false,""language"":""nl-NL"",""screen_resolution"":[1440,900],""platform"":""MacIntel"",""timezone"":""Europe/Amsterdam""}","","","","1632922524581","2","","","pearl","null","false","-1.0217301946487565","0.35","0.35","1","3","0.2","filler","F","300","3077.9970839810576","pearl","0.8114005923271179","[object SpeechRecognitionResultList]"
"907","","html-speech-API-response","9","23742","0.0-4.5-0.5","4","dutch","w00kfhnnf9mxtar","{""user_agent"":""Mozilla/5.0 (Macintosh; Intel Mac OS X 10_15_7) AppleWebKit/537.36 (KHTML, like Gecko) Chrome/94.0.4606.61 Safari/537.36"",""on_chrome"":true,""on_mobile"":false,""language"":""nl-NL"",""screen_resolution"":[1440,900],""platform"":""MacIntel"",""timezone"":""Europe/Amsterdam""}","","","","1632922527849","2","","","pearl","null","false","-1.0217301946487565","0.35","0.35","1","3","0.2","filler","F","300","3077.9970839810576","feral","0.2313840687274933","[object SpeechRecognitionResultList]"
"1095","","html-speech-API-response","10","27163","0.0-4.6-0.6","4","dutch","w00kfhnnf9mxtar","{""user_agent"":""Mozilla/5.0 (Macintosh; Intel Mac OS X 10_15_7) AppleWebKit/537.36 (KHTML, like Gecko) Chrome/94.0.4606.61 Safari/537.36"",""on_chrome"":true,""on_mobile"":false,""language"":""nl-NL"",""screen_resolution"":[1440,900],""platform"":""MacIntel"",""timezone"":""Europe/Amsterdam""}","","","","1632922531069","3","","","cloud","null","true","-Infinity","0.35","0.35","1","3","0.2","filler","F","300","Infinity","cloud","0.8371098637580872","[object SpeechRecognitionResultList]"
"813","","html-speech-API-response","11","30319","0.0-4.7-0.7","4","dutch","w00kfhnnf9mxtar","{""user_agent"":""Mozilla/5.0 (Macintosh; Intel Mac OS X 10_15_7) AppleWebKit/537.36 (KHTML, like Gecko) Chrome/94.0.4606.61 Safari/537.36"",""on_chrome"":true,""on_mobile"":false,""language"":""nl-NL"",""screen_resolution"":[1440,900],""platform"":""MacIntel"",""timezone"":""Europe/Amsterdam""}","","","","1632922534490","3","","","cloud","null","false","-Infinity","0.35","0.35","1","3","0.2","filler","F","300","Infinity","cloud","0.8383651375770569","[object SpeechRecognitionResultList]"
"907","","html-speech-API-response","12","33480","0.0-4.8-0.8","4","dutch","w00kfhnnf9mxtar","{""user_agent"":""Mozilla/5.0 (Macintosh; Intel Mac OS X 10_15_7) AppleWebKit/537.36 (KHTML, like Gecko) Chrome/94.0.4606.61 Safari/537.36"",""on_chrome"":true,""on_mobile"":false,""language"":""nl-NL"",""screen_resolution"":[1440,900],""platform"":""MacIntel"",""timezone"":""Europe/Amsterdam""}","","","","1632922537646","3","","","cloud","null","false","-Infinity","0.35","0.35","1","3","0.2","filler","F","300","Infinity","cloud","0.8357756733894348","[object SpeechRecognitionResultList]"
"1001","","html-speech-API-response","13","36977","0.0-4.9-0.9","4","dutch","w00kfhnnf9mxtar","{""user_agent"":""Mozilla/5.0 (Macintosh; Intel Mac OS X 10_15_7) AppleWebKit/537.36 (KHTML, like Gecko) Chrome/94.0.4606.61 Safari/537.36"",""on_chrome"":true,""on_mobile"":false,""language"":""nl-NL"",""screen_resolution"":[1440,900],""platform"":""MacIntel"",""timezone"":""Europe/Amsterdam""}","","","","1632922540807","4","","","economy","null","true","-Infinity","0.35","0.35","1","3","0.2","filler","F","300","Infinity","economy","0.9546766877174377","[object SpeechRecognitionResultList]"
"814","","html-speech-API-response","14","40167","0.0-4.10-0.10","4","dutch","w00kfhnnf9mxtar","{""user_agent"":""Mozilla/5.0 (Macintosh; Intel Mac OS X 10_15_7) AppleWebKit/537.36 (KHTML, like Gecko) Chrome/94.0.4606.61 Safari/537.36"",""on_chrome"":true,""on_mobile"":false,""language"":""nl-NL"",""screen_resolution"":[1440,900],""platform"":""MacIntel"",""timezone"":""Europe/Amsterdam""}","","","","1632922544304","4","","","economy","null","false","-Infinity","0.35","0.35","1","3","0.2","filler","F","300","Infinity","economy","0.9546766877174377","[object SpeechRecognitionResultList]"
"813","","html-speech-API-response","15","43499","0.0-4.11-0.11","4","dutch","w00kfhnnf9mxtar","{""user_agent"":""Mozilla/5.0 (Macintosh; Intel Mac OS X 10_15_7) AppleWebKit/537.36 (KHTML, like Gecko) Chrome/94.0.4606.61 Safari/537.36"",""on_chrome"":true,""on_mobile"":false,""language"":""nl-NL"",""screen_resolution"":[1440,900],""platform"":""MacIntel"",""timezone"":""Europe/Amsterdam""}","","","","1632922547495","4","","","economy","null","false","-Infinity","0.35","0.35","1","3","0.2","filler","F","300","Infinity","economy","0.9546766877174377","[object SpeechRecognitionResultList]"
"907","","html-speech-API-response","16","46730","0.0-4.12-0.12","4","dutch","w00kfhnnf9mxtar","{""user_agent"":""Mozilla/5.0 (Macintosh; Intel Mac OS X 10_15_7) AppleWebKit/537.36 (KHTML, like Gecko) Chrome/94.0.4606.61 Safari/537.36"",""on_chrome"":true,""on_mobile"":false,""language"":""nl-NL"",""screen_resolution"":[1440,900],""platform"":""MacIntel"",""timezone"":""Europe/Amsterdam""}","","","","1632922550827","5","","","knee","null","true","","","0.35","1","3","0.2","filler","F","","","knee","0.3629024028778076","[object SpeechRecognitionResultList]"
"812","","html-speech-API-response","17","49893","0.0-4.13-0.13","4","dutch","w00kfhnnf9mxtar","{""user_agent"":""Mozilla/5.0 (Macintosh; Intel Mac OS X 10_15_7) AppleWebKit/537.36 (KHTML, like Gecko) Chrome/94.0.4606.61 Safari/537.36"",""on_chrome"":true,""on_mobile"":false,""language"":""nl-NL"",""screen_resolution"":[1440,900],""platform"":""MacIntel"",""timezone"":""Europe/Amsterdam""}","","","","1632922554057","5","","","knee","null","false","","","0.35","1","3","0.2","filler","F","","","knee","0.3775724172592163","[object SpeechRecognitionResultList]"
"809","","html-speech-API-response","18","53125","0.0-4.14-0.14","4","dutch","w00kfhnnf9mxtar","{""user_agent"":""Mozilla/5.0 (Macintosh; Intel Mac OS X 10_15_7) AppleWebKit/537.36 (KHTML, like Gecko) Chrome/94.0.4606.61 Safari/537.36"",""on_chrome"":true,""on_mobile"":false,""language"":""nl-NL"",""screen_resolution"":[1440,900],""platform"":""MacIntel"",""timezone"":""Europe/Amsterdam""}","","","","1632922557219","5","","","knee","null","false","","","0.35","1","3","0.2","filler","F","","","me","0.851511538028717","[object SpeechRecognitionResultList]"
"1005","","html-speech-API-response","19","56425","0.0-4.15-0.15","4","dutch","w00kfhnnf9mxtar","{""user_agent"":""Mozilla/5.0 (Macintosh; Intel Mac OS X 10_15_7) AppleWebKit/537.36 (KHTML, like Gecko) Chrome/94.0.4606.61 Safari/537.36"",""on_chrome"":true,""on_mobile"":false,""language"":""nl-NL"",""screen_resolution"":[1440,900],""platform"":""MacIntel"",""timezone"":""Europe/Amsterdam""}","","","","1632922560453","6","","","egg","null","true","","","0.35","1","3","0.2","filler","F","","","egg","0.8891645073890686","[object SpeechRecognitionResultList]"
"815","","html-speech-API-response","20","59626","0.0-4.16-0.16","4","dutch","w00kfhnnf9mxtar","{""user_agent"":""Mozilla/5.0 (Macintosh; Intel Mac OS X 10_15_7) AppleWebKit/537.36 (KHTML, like Gecko) Chrome/94.0.4606.61 Safari/537.36"",""on_chrome"":true,""on_mobile"":false,""language"":""nl-NL"",""screen_resolution"":[1440,900],""platform"":""MacIntel"",""timezone"":""Europe/Amsterdam""}","","","","1632922563752","6","","","egg","null","false","","","0.35","1","3","0.2","filler","F","","","egg","0.889153242111206","[object SpeechRecognitionResultList]"
"908","","html-speech-API-response","21","62775","0.0-4.17-0.17","4","dutch","w00kfhnnf9mxtar","{""user_agent"":""Mozilla/5.0 (Macintosh; Intel Mac OS X 10_15_7) AppleWebKit/537.36 (KHTML, like Gecko) Chrome/94.0.4606.61 Safari/537.36"",""on_chrome"":true,""on_mobile"":false,""language"":""nl-NL"",""screen_resolution"":[1440,900],""platform"":""MacIntel"",""timezone"":""Europe/Amsterdam""}","","","","1632922566955","6","","","egg","null","false","","","0.35","1","3","0.2","filler","F","","","egg","0.8891779780387878","[object SpeechRecognitionResultList]"
"908","","html-speech-API-response","22","66011","0.0-4.18-0.18","4","dutch","w00kfhnnf9mxtar","{""user_agent"":""Mozilla/5.0 (Macintosh; Intel Mac OS X 10_15_7) AppleWebKit/537.36 (KHTML, like Gecko) Chrome/94.0.4606.61 Safari/537.36"",""on_chrome"":true,""on_mobile"":false,""language"":""nl-NL"",""screen_resolution"":[1440,900],""platform"":""MacIntel"",""timezone"":""Europe/Amsterdam""}","","","","1632922570103","7","","","beer","null","true","","","0.35","1","3","0.2","filler","F","","","beer","0.8452988862991333","[object SpeechRecognitionResultList]"
"815","","html-speech-API-response","23","69245","0.0-4.19-0.19","4","dutch","w00kfhnnf9mxtar","{""user_agent"":""Mozilla/5.0 (Macintosh; Intel Mac OS X 10_15_7) AppleWebKit/537.36 (KHTML, like Gecko) Chrome/94.0.4606.61 Safari/537.36"",""on_chrome"":true,""on_mobile"":false,""language"":""nl-NL"",""screen_resolution"":[1440,900],""platform"":""MacIntel"",""timezone"":""Europe/Amsterdam""}","","","","1632922573338","7","","","beer","null","false","","","0.35","1","3","0.2","filler","F","","","beer","0.8418415784835815","[object SpeechRecognitionResultList]"
"814","","html-speech-API-response","24","72480","0.0-4.20-0.20","4","dutch","w00kfhnnf9mxtar","{""user_agent"":""Mozilla/5.0 (Macintosh; Intel Mac OS X 10_15_7) AppleWebKit/537.36 (KHTML, like Gecko) Chrome/94.0.4606.61 Safari/537.36"",""on_chrome"":true,""on_mobile"":false,""language"":""nl-NL"",""screen_resolution"":[1440,900],""platform"":""MacIntel"",""timezone"":""Europe/Amsterdam""}","","","","1632922576572","7","","","beer","null","false","","","0.35","1","3","0.2","filler","F","","","bear","0.8136282563209534","[object SpeechRecognitionResultList]"
"906","","html-speech-API-response","25","75711","0.0-4.21-0.21","4","dutch","w00kfhnnf9mxtar","{""user_agent"":""Mozilla/5.0 (Macintosh; Intel Mac OS X 10_15_7) AppleWebKit/537.36 (KHTML, like Gecko) Chrome/94.0.4606.61 Safari/537.36"",""on_chrome"":true,""on_mobile"":false,""language"":""nl-NL"",""screen_resolution"":[1440,900],""platform"":""MacIntel"",""timezone"":""Europe/Amsterdam""}","","","","1632922579808","8","","","mattress","null","true","","","0.35","1","3","0.2","filler","F","","","mattress","0.9546766877174377","[object SpeechRecognitionResultList]"
"2219","","html-speech-API-response","26","78940","0.0-4.22-0.22","4","dutch","w00kfhnnf9mxtar","{""user_agent"":""Mozilla/5.0 (Macintosh; Intel Mac OS X 10_15_7) AppleWebKit/537.36 (KHTML, like Gecko) Chrome/94.0.4606.61 Safari/537.36"",""on_chrome"":true,""on_mobile"":false,""language"":""nl-NL"",""screen_resolution"":[1440,900],""platform"":""MacIntel"",""timezone"":""Europe/Amsterdam""}","","","","1632922583038","8","","","mattress","null","false","","","0.35","1","3","0.2","filler","F","","","mattress","0.9546766877174377","[object SpeechRecognitionResultList]"
"1000","","html-speech-API-response","27","82238","0.0-4.23-0.23","4","dutch","w00kfhnnf9mxtar","{""user_agent"":""Mozilla/5.0 (Macintosh; Intel Mac OS X 10_15_7) AppleWebKit/537.36 (KHTML, like Gecko) Chrome/94.0.4606.61 Safari/537.36"",""on_chrome"":true,""on_mobile"":false,""language"":""nl-NL"",""screen_resolution"":[1440,900],""platform"":""MacIntel"",""timezone"":""Europe/Amsterdam""}","","","","1632922586267","8","","","mattress","null","false","","","0.35","1","3","0.2","filler","F","","","mattress","0.9546766877174377","[object SpeechRecognitionResultList]"
"1094","","html-speech-API-response","28","85874","0.0-4.24-0.24","4","dutch","w00kfhnnf9mxtar","{""user_agent"":""Mozilla/5.0 (Macintosh; Intel Mac OS X 10_15_7) AppleWebKit/537.36 (KHTML, like Gecko) Chrome/94.0.4606.61 Safari/537.36"",""on_chrome"":true,""on_mobile"":false,""language"":""nl-NL"",""screen_resolution"":[1440,900],""platform"":""MacIntel"",""timezone"":""Europe/Amsterdam""}","","","","1632922589567","9","","","broom","null","true","","","0.35","1","3","0.2","filler","F","","","broom","0.8367867469787598","[object SpeechRecognitionResultList]"
"814","","html-speech-API-response","29","89118","0.0-4.25-0.25","4","dutch","w00kfhnnf9mxtar","{""user_agent"":""Mozilla/5.0 (Macintosh; Intel Mac OS X 10_15_7) AppleWebKit/537.36 (KHTML, like Gecko) Chrome/94.0.4606.61 Safari/537.36"",""on_chrome"":true,""on_mobile"":false,""language"":""nl-NL"",""screen_resolution"":[1440,900],""platform"":""MacIntel"",""timezone"":""Europe/Amsterdam""}","","","","1632922593200","9","","","broom","null","false","","","0.35","1","3","0.2","filler","F","","","room","0.8554952144622803","[object SpeechRecognitionResultList]"
"905","","html-speech-API-response","30","92498","0.0-4.26-0.26","4","dutch","w00kfhnnf9mxtar","{""user_agent"":""Mozilla/5.0 (Macintosh; Intel Mac OS X 10_15_7) AppleWebKit/537.36 (KHTML, like Gecko) Chrome/94.0.4606.61 Safari/537.36"",""on_chrome"":true,""on_mobile"":false,""language"":""nl-NL"",""screen_resolution"":[1440,900],""platform"":""MacIntel"",""timezone"":""Europe/Amsterdam""}","","","","1632922596445","9","","","broom","null","false","","","0.35","1","3","0.2","filler","F","","","broom","0.9141793251037598","[object SpeechRecognitionResultList]"
"1000","","html-speech-API-response","31","95804","0.0-4.27-0.27","4","dutch","w00kfhnnf9mxtar","{""user_agent"":""Mozilla/5.0 (Macintosh; Intel Mac OS X 10_15_7) AppleWebKit/537.36 (KHTML, like Gecko) Chrome/94.0.4606.61 Safari/537.36"",""on_chrome"":true,""on_mobile"":false,""language"":""nl-NL"",""screen_resolution"":[1440,900],""platform"":""MacIntel"",""timezone"":""Europe/Amsterdam""}","","","","1632922599826","10","","","doctor","null","true","","","0.35","1","3","0.2","filler","F","","","doctor","0.7807205319404602","[object SpeechRecognitionResultList]"
"904","","html-speech-API-response","32","98829","0.0-4.28-0.28","4","dutch","w00kfhnnf9mxtar","{""user_agent"":""Mozilla/5.0 (Macintosh; Intel Mac OS X 10_15_7) AppleWebKit/537.36 (KHTML, like Gecko) Chrome/94.0.4606.61 Safari/537.36"",""on_chrome"":true,""on_mobile"":false,""language"":""nl-NL"",""screen_resolution"":[1440,900],""platform"":""MacIntel"",""timezone"":""Europe/Amsterdam""}","","","","1632922603131","10","","","doctor","null","false","","","0.35","1","3","0.2","filler","F","","","doctor","0.8368550539016724","[object SpeechRecognitionResultList]"
"1091","","html-speech-API-response","33","102305","0.0-4.29-0.29","4","dutch","w00kfhnnf9mxtar","{""user_agent"":""Mozilla/5.0 (Macintosh; Intel Mac OS X 10_15_7) AppleWebKit/537.36 (KHTML, like Gecko) Chrome/94.0.4606.61 Safari/537.36"",""on_chrome"":true,""on_mobile"":false,""language"":""nl-NL"",""screen_resolution"":[1440,900],""platform"":""MacIntel"",""timezone"":""Europe/Amsterdam""}","","","","1632922606157","10","","","doctor","null","false","","","0.35","1","3","0.2","filler","F","","","doctor","0.22628921270370483","[object SpeechRecognitionResultList]"
"1093","","html-speech-API-response","34","105784","0.0-4.30-0.30","4","dutch","w00kfhnnf9mxtar","{""user_agent"":""Mozilla/5.0 (Macintosh; Intel Mac OS X 10_15_7) AppleWebKit/537.36 (KHTML, like Gecko) Chrome/94.0.4606.61 Safari/537.36"",""on_chrome"":true,""on_mobile"":false,""language"":""nl-NL"",""screen_resolution"":[1440,900],""platform"":""MacIntel"",""timezone"":""Europe/Amsterdam""}","","","","1632922609632","11","","","maggot","null","true","","","0.35","1","3","0.2","filler","F","","","Meggitt","0.9546766877174377","[object SpeechRecognitionResultList]"
"812","","html-speech-API-response","35","108979","0.0-4.31-0.31","4","dutch","w00kfhnnf9mxtar","{""user_agent"":""Mozilla/5.0 (Macintosh; Intel Mac OS X 10_15_7) AppleWebKit/537.36 (KHTML, like Gecko) Chrome/94.0.4606.61 Safari/537.36"",""on_chrome"":true,""on_mobile"":false,""language"":""nl-NL"",""screen_resolution"":[1440,900],""platform"":""MacIntel"",""timezone"":""Europe/Amsterdam""}","","","","1632922613111","11","","","maggot","null","false","","","0.35","1","3","0.2","filler","F","","","Meggitt","0.9546766877174377","[object SpeechRecognitionResultList]"
"906","","html-speech-API-response","36","112216","0.0-4.32-0.32","4","dutch","w00kfhnnf9mxtar","{""user_agent"":""Mozilla/5.0 (Macintosh; Intel Mac OS X 10_15_7) AppleWebKit/537.36 (KHTML, like Gecko) Chrome/94.0.4606.61 Safari/537.36"",""on_chrome"":true,""on_mobile"":false,""language"":""nl-NL"",""screen_resolution"":[1440,900],""platform"":""MacIntel"",""timezone"":""Europe/Amsterdam""}","","","","1632922616306","11","","","maggot","null","false","","","0.35","1","3","0.2","filler","F","","","maggot","0.775443971157074","[object SpeechRecognitionResultList]"
"1094","","html-speech-API-response","37","115710","0.0-4.33-0.33","4","dutch","w00kfhnnf9mxtar","{""user_agent"":""Mozilla/5.0 (Macintosh; Intel Mac OS X 10_15_7) AppleWebKit/537.36 (KHTML, like Gecko) Chrome/94.0.4606.61 Safari/537.36"",""on_chrome"":true,""on_mobile"":false,""language"":""nl-NL"",""screen_resolution"":[1440,900],""platform"":""MacIntel"",""timezone"":""Europe/Amsterdam""}","","","","1632922619543","12","","","bucket","null","true","","","0.35","1","3","0.2","filler","F","","","bakit","0.7194077372550964","[object SpeechRecognitionResultList]"
"1093","","html-speech-API-response","38","119108","0.0-4.34-0.34","4","dutch","w00kfhnnf9mxtar","{""user_agent"":""Mozilla/5.0 (Macintosh; Intel Mac OS X 10_15_7) AppleWebKit/537.36 (KHTML, like Gecko) Chrome/94.0.4606.61 Safari/537.36"",""on_chrome"":true,""on_mobile"":false,""language"":""nl-NL"",""screen_resolution"":[1440,900],""platform"":""MacIntel"",""timezone"":""Europe/Amsterdam""}","","","","1632922623037","12","","","bucket","null","false","","","0.35","1","3","0.2","filler","F","","","ducat","0.8685348629951477","[object SpeechRecognitionResultList]"
"1089","","html-speech-API-response","39","122540","0.0-4.35-0.35","4","dutch","w00kfhnnf9mxtar","{""user_agent"":""Mozilla/5.0 (Macintosh; Intel Mac OS X 10_15_7) AppleWebKit/537.36 (KHTML, like Gecko) Chrome/94.0.4606.61 Safari/537.36"",""on_chrome"":true,""on_mobile"":false,""language"":""nl-NL"",""screen_resolution"":[1440,900],""platform"":""MacIntel"",""timezone"":""Europe/Amsterdam""}","","","","1632922626436","12","","","bucket","null","false","","","0.35","1","3","0.2","filler","F","","","ducat","0.7261689305305481","[object SpeechRecognitionResultList]"
"1186","","html-speech-API-response","40","126182","0.0-4.36-0.36","4","dutch","w00kfhnnf9mxtar","{""user_agent"":""Mozilla/5.0 (Macintosh; Intel Mac OS X 10_15_7) AppleWebKit/537.36 (KHTML, like Gecko) Chrome/94.0.4606.61 Safari/537.36"",""on_chrome"":true,""on_mobile"":false,""language"":""nl-NL"",""screen_resolution"":[1440,900],""platform"":""MacIntel"",""timezone"":""Europe/Amsterdam""}","","","","1632922629867","13","","","tomato","null","true","","","0.35","1","3","0.2","filler","F","","","tomato","0.9546766877174377","[object SpeechRecognitionResultList]"
"998","","html-speech-API-response","41","129606","0.0-4.37-0.37","4","dutch","w00kfhnnf9mxtar","{""user_agent"":""Mozilla/5.0 (Macintosh; Intel Mac OS X 10_15_7) AppleWebKit/537.36 (KHTML, like Gecko) Chrome/94.0.4606.61 Safari/537.36"",""on_chrome"":true,""on_mobile"":false,""language"":""nl-NL"",""screen_resolution"":[1440,900],""platform"":""MacIntel"",""timezone"":""Europe/Amsterdam""}","","","","1632922633512","13","","","tomato","null","false","","","0.35","1","3","0.2","filler","F","","","tomato","0.9546766877174377","[object SpeechRecognitionResultList]"
"1090","","html-speech-API-response","42","133167","0.0-4.38-0.38","4","dutch","w00kfhnnf9mxtar","{""user_agent"":""Mozilla/5.0 (Macintosh; Intel Mac OS X 10_15_7) AppleWebKit/537.36 (KHTML, like Gecko) Chrome/94.0.4606.61 Safari/537.36"",""on_chrome"":true,""on_mobile"":false,""language"":""nl-NL"",""screen_resolution"":[1440,900],""platform"":""MacIntel"",""timezone"":""Europe/Amsterdam""}","","","","1632922636934","13","","","tomato","null","false","","","0.35","1","3","0.2","filler","F","","","tomato","0.9546766877174377","[object SpeechRecognitionResultList]"
"1280","","html-speech-API-response","43","136762","0.0-4.39-0.39","4","dutch","w00kfhnnf9mxtar","{""user_agent"":""Mozilla/5.0 (Macintosh; Intel Mac OS X 10_15_7) AppleWebKit/537.36 (KHTML, like Gecko) Chrome/94.0.4606.61 Safari/537.36"",""on_chrome"":true,""on_mobile"":false,""language"":""nl-NL"",""screen_resolution"":[1440,900],""platform"":""MacIntel"",""timezone"":""Europe/Amsterdam""}","","","","1632922640495","14","","","poison","null","true","","","0.35","1","3","0.2","filler","F","","","poison","0.7387387752532959","[object SpeechRecognitionResultList]"
"1186","","html-speech-API-response","44","140345","0.0-4.40-0.40","4","dutch","w00kfhnnf9mxtar","{""user_agent"":""Mozilla/5.0 (Macintosh; Intel Mac OS X 10_15_7) AppleWebKit/537.36 (KHTML, like Gecko) Chrome/94.0.4606.61 Safari/537.36"",""on_chrome"":true,""on_mobile"":false,""language"":""nl-NL"",""screen_resolution"":[1440,900],""platform"":""MacIntel"",""timezone"":""Europe/Amsterdam""}","","","","1632922644089","14","","","poison","null","false","","","0.35","1","3","0.2","filler","F","","","poison","0.7964531183242798","[object SpeechRecognitionResultList]"
"1000","","html-speech-API-response","45","143781","0.0-4.41-0.41","4","dutch","w00kfhnnf9mxtar","{""user_agent"":""Mozilla/5.0 (Macintosh; Intel Mac OS X 10_15_7) AppleWebKit/537.36 (KHTML, like Gecko) Chrome/94.0.4606.61 Safari/537.36"",""on_chrome"":true,""on_mobile"":false,""language"":""nl-NL"",""screen_resolution"":[1440,900],""platform"":""MacIntel"",""timezone"":""Europe/Amsterdam""}","","","","1632922647674","14","","","poison","null","false","","","0.35","1","3","0.2","filler","F","","","poison","0.8117748498916626","[object SpeechRecognitionResultList]"
"1094","","html-speech-API-response","46","147281","0.0-4.42-0.42","4","dutch","w00kfhnnf9mxtar","{""user_agent"":""Mozilla/5.0 (Macintosh; Intel Mac OS X 10_15_7) AppleWebKit/537.36 (KHTML, like Gecko) Chrome/94.0.4606.61 Safari/537.36"",""on_chrome"":true,""on_mobile"":false,""language"":""nl-NL"",""screen_resolution"":[1440,900],""platform"":""MacIntel"",""timezone"":""Europe/Amsterdam""}","","","","1632922651109","15","","","soul","null","true","","","0.35","1","3","0.2","filler","F","","","so","0.8334317207336426","[object SpeechRecognitionResultList]"
"999","","html-speech-API-response","47","150701","0.0-4.43-0.43","4","dutch","w00kfhnnf9mxtar","{""user_agent"":""Mozilla/5.0 (Macintosh; Intel Mac OS X 10_15_7) AppleWebKit/537.36 (KHTML, like Gecko) Chrome/94.0.4606.61 Safari/537.36"",""on_chrome"":true,""on_mobile"":false,""language"":""nl-NL"",""screen_resolution"":[1440,900],""platform"":""MacIntel"",""timezone"":""Europe/Amsterdam""}","","","","1632922654608","15","","","soul","null","false","","","0.35","1","3","0.2","filler","F","","","so","0.7259594798088074","[object SpeechRecognitionResultList]"
"1001","","html-speech-API-response","48","154339","0.0-4.44-0.44","4","dutch","w00kfhnnf9mxtar","{""user_agent"":""Mozilla/5.0 (Macintosh; Intel Mac OS X 10_15_7) AppleWebKit/537.36 (KHTML, like Gecko) Chrome/94.0.4606.61 Safari/537.36"",""on_chrome"":true,""on_mobile"":false,""language"":""nl-NL"",""screen_resolution"":[1440,900],""platform"":""MacIntel"",""timezone"":""Europe/Amsterdam""}","","","","1632922658030","15","","","soul","null","false","","","0.35","1","3","0.2","filler","F","","","so","0.8086785674095154","[object SpeechRecognitionResultList]"
"1184","","html-speech-API-response","49","157872","0.0-4.45-0.45","4","dutch","w00kfhnnf9mxtar","{""user_agent"":""Mozilla/5.0 (Macintosh; Intel Mac OS X 10_15_7) AppleWebKit/537.36 (KHTML, like Gecko) Chrome/94.0.4606.61 Safari/537.36"",""on_chrome"":true,""on_mobile"":false,""language"":""nl-NL"",""screen_resolution"":[1440,900],""platform"":""MacIntel"",""timezone"":""Europe/Amsterdam""}","","","","1632922661669","16","","","food","null","true","","","0.35","1","3","0.2","filler","F","","","food","0.8933563232421875","[object SpeechRecognitionResultList]"
"907","","html-speech-API-response","50","161172","0.0-4.46-0.46","4","dutch","w00kfhnnf9mxtar","{""user_agent"":""Mozilla/5.0 (Macintosh; Intel Mac OS X 10_15_7) AppleWebKit/537.36 (KHTML, like Gecko) Chrome/94.0.4606.61 Safari/537.36"",""on_chrome"":true,""on_mobile"":false,""language"":""nl-NL"",""screen_resolution"":[1440,900],""platform"":""MacIntel"",""timezone"":""Europe/Amsterdam""}","","","","1632922665199","16","","","food","null","false","","","0.35","1","3","0.2","filler","F","","","food","0.8933555483818054","[object SpeechRecognitionResultList]"
"997","","html-speech-API-response","51","164534","0.0-4.47-0.47","4","dutch","w00kfhnnf9mxtar","{""user_agent"":""Mozilla/5.0 (Macintosh; Intel Mac OS X 10_15_7) AppleWebKit/537.36 (KHTML, like Gecko) Chrome/94.0.4606.61 Safari/537.36"",""on_chrome"":true,""on_mobile"":false,""language"":""nl-NL"",""screen_resolution"":[1440,900],""platform"":""MacIntel"",""timezone"":""Europe/Amsterdam""}","","","","1632922668498","16","","","food","null","false","","","0.35","1","3","0.2","filler","F","","","food","0.8933563232421875","[object SpeechRecognitionResultList]"
"1093","","html-speech-API-response","52","168030","0.0-4.48-0.48","4","dutch","w00kfhnnf9mxtar","{""user_agent"":""Mozilla/5.0 (Macintosh; Intel Mac OS X 10_15_7) AppleWebKit/537.36 (KHTML, like Gecko) Chrome/94.0.4606.61 Safari/537.36"",""on_chrome"":true,""on_mobile"":false,""language"":""nl-NL"",""screen_resolution"":[1440,900],""platform"":""MacIntel"",""timezone"":""Europe/Amsterdam""}","","","","1632922671863","17","","","crab","null","true","","","0.35","1","3","0.2","filler","F","","","crab","0.8732950687408447","[object SpeechRecognitionResultList]"
"910","","html-speech-API-response","53","171359","0.0-4.49-0.49","4","dutch","w00kfhnnf9mxtar","{""user_agent"":""Mozilla/5.0 (Macintosh; Intel Mac OS X 10_15_7) AppleWebKit/537.36 (KHTML, like Gecko) Chrome/94.0.4606.61 Safari/537.36"",""on_chrome"":true,""on_mobile"":false,""language"":""nl-NL"",""screen_resolution"":[1440,900],""platform"":""MacIntel"",""timezone"":""Europe/Amsterdam""}","","","","1632922675357","17","","","crab","null","false","","","0.35","1","3","0.2","filler","F","","","crab","0.8725377321243286","[object SpeechRecognitionResultList]"
"1185","","html-speech-API-response","54","174864","0.0-4.50-0.50","4","dutch","w00kfhnnf9mxtar","{""user_agent"":""Mozilla/5.0 (Macintosh; Intel Mac OS X 10_15_7) AppleWebKit/537.36 (KHTML, like Gecko) Chrome/94.0.4606.61 Safari/537.36"",""on_chrome"":true,""on_mobile"":false,""language"":""nl-NL"",""screen_resolution"":[1440,900],""platform"":""MacIntel"",""timezone"":""Europe/Amsterdam""}","","","","1632922678686","17","","","crab","null","false","","","0.35","1","3","0.2","filler","F","","","crab","0.8737635612487793","[object SpeechRecognitionResultList]"
"1185","","html-speech-API-response","55","178384","0.0-4.51-0.51","4","dutch","w00kfhnnf9mxtar","{""user_agent"":""Mozilla/5.0 (Macintosh; Intel Mac OS X 10_15_7) AppleWebKit/537.36 (KHTML, like Gecko) Chrome/94.0.4606.61 Safari/537.36"",""on_chrome"":true,""on_mobile"":false,""language"":""nl-NL"",""screen_resolution"":[1440,900],""platform"":""MacIntel"",""timezone"":""Europe/Amsterdam""}","","","","1632922682192","18","","","corpse","null","true","","","0.35","1","3","0.2","filler","F","","","corpse","0.9277009963989258","[object SpeechRecognitionResultList]"
"1001","","html-speech-API-response","56","181731","0.0-4.52-0.52","4","dutch","w00kfhnnf9mxtar","{""user_agent"":""Mozilla/5.0 (Macintosh; Intel Mac OS X 10_15_7) AppleWebKit/537.36 (KHTML, like Gecko) Chrome/94.0.4606.61 Safari/537.36"",""on_chrome"":true,""on_mobile"":false,""language"":""nl-NL"",""screen_resolution"":[1440,900],""platform"":""MacIntel"",""timezone"":""Europe/Amsterdam""}","","","","1632922685711","18","","","corpse","null","false","","","0.35","1","3","0.2","filler","F","","","corpse","0.9546766877174377","[object SpeechRecognitionResultList]"
"1089","","html-speech-API-response","57","185341","0.0-4.53-0.53","4","dutch","w00kfhnnf9mxtar","{""user_agent"":""Mozilla/5.0 (Macintosh; Intel Mac OS X 10_15_7) AppleWebKit/537.36 (KHTML, like Gecko) Chrome/94.0.4606.61 Safari/537.36"",""on_chrome"":true,""on_mobile"":false,""language"":""nl-NL"",""screen_resolution"":[1440,900],""platform"":""MacIntel"",""timezone"":""Europe/Amsterdam""}","","","","1632922689063","18","","","corpse","null","false","","","0.35","1","3","0.2","filler","F","","","corpse","0.768791139125824","[object SpeechRecognitionResultList]"
"1278","","html-speech-API-response","58","188946","0.0-4.54-0.54","4","dutch","w00kfhnnf9mxtar","{""user_agent"":""Mozilla/5.0 (Macintosh; Intel Mac OS X 10_15_7) AppleWebKit/537.36 (KHTML, like Gecko) Chrome/94.0.4606.61 Safari/537.36"",""on_chrome"":true,""on_mobile"":false,""language"":""nl-NL"",""screen_resolution"":[1440,900],""platform"":""MacIntel"",""timezone"":""Europe/Amsterdam""}","","","","1632922692668","19","","","horse","null","true","","","0.35","1","3","0.2","filler","F","","","worse","0.9546766877174377","[object SpeechRecognitionResultList]"
"904","","html-speech-API-response","59","192142","0.0-4.55-0.55","4","dutch","w00kfhnnf9mxtar","{""user_agent"":""Mozilla/5.0 (Macintosh; Intel Mac OS X 10_15_7) AppleWebKit/537.36 (KHTML, like Gecko) Chrome/94.0.4606.61 Safari/537.36"",""on_chrome"":true,""on_mobile"":false,""language"":""nl-NL"",""screen_resolution"":[1440,900],""platform"":""MacIntel"",""timezone"":""Europe/Amsterdam""}","","","","1632922696274","19","","","horse","null","false","","","0.35","1","3","0.2","filler","F","","","horse","0.8657892346382141","[object SpeechRecognitionResultList]"
"1278","","html-speech-API-response","60","195817","0.0-4.56-0.56","4","dutch","w00kfhnnf9mxtar","{""user_agent"":""Mozilla/5.0 (Macintosh; Intel Mac OS X 10_15_7) AppleWebKit/537.36 (KHTML, like Gecko) Chrome/94.0.4606.61 Safari/537.36"",""on_chrome"":true,""on_mobile"":false,""language"":""nl-NL"",""screen_resolution"":[1440,900],""platform"":""MacIntel"",""timezone"":""Europe/Amsterdam""}","","","","1632922699470","19","","","horse","null","false","","","0.35","1","3","0.2","filler","F","","","horse","0.8657901883125305","[object SpeechRecognitionResultList]"
"1560","","html-speech-API-response","61","199821","0.0-4.57-0.57","4","dutch","w00kfhnnf9mxtar","{""user_agent"":""Mozilla/5.0 (Macintosh; Intel Mac OS X 10_15_7) AppleWebKit/537.36 (KHTML, like Gecko) Chrome/94.0.4606.61 Safari/537.36"",""on_chrome"":true,""on_mobile"":false,""language"":""nl-NL"",""screen_resolution"":[1440,900],""platform"":""MacIntel"",""timezone"":""Europe/Amsterdam""}","","","","1632922703145","20","","","scarf","null","true","","","0.35","1","3","0.2","filler","F","","","scarf","0.8298540115356445","[object SpeechRecognitionResultList]"
"1183","","html-speech-API-response","62","203449","0.0-4.58-0.58","4","dutch","w00kfhnnf9mxtar","{""user_agent"":""Mozilla/5.0 (Macintosh; Intel Mac OS X 10_15_7) AppleWebKit/537.36 (KHTML, like Gecko) Chrome/94.0.4606.61 Safari/537.36"",""on_chrome"":true,""on_mobile"":false,""language"":""nl-NL"",""screen_resolution"":[1440,900],""platform"":""MacIntel"",""timezone"":""Europe/Amsterdam""}","","","","1632922707148","20","","","scarf","null","false","","","0.35","1","3","0.2","filler","F","","","scarf","0.8504313230514526","[object SpeechRecognitionResultList]"
"1183","","html-speech-API-response","63","207113","0.0-4.59-0.59","4","dutch","w00kfhnnf9mxtar","{""user_agent"":""Mozilla/5.0 (Macintosh; Intel Mac OS X 10_15_7) AppleWebKit/537.36 (KHTML, like Gecko) Chrome/94.0.4606.61 Safari/537.36"",""on_chrome"":true,""on_mobile"":false,""language"":""nl-NL"",""screen_resolution"":[1440,900],""platform"":""MacIntel"",""timezone"":""Europe/Amsterdam""}","","","","1632922710777","20","","","scarf","null","false","","","0.35","1","3","0.2","filler","F","","","scarf","0.9546766877174377","[object SpeechRecognitionResultList]"
"1279","","html-speech-API-response","64","210706","0.0-4.60-0.60","4","dutch","w00kfhnnf9mxtar","{""user_agent"":""Mozilla/5.0 (Macintosh; Intel Mac OS X 10_15_7) AppleWebKit/537.36 (KHTML, like Gecko) Chrome/94.0.4606.61 Safari/537.36"",""on_chrome"":true,""on_mobile"":false,""language"":""nl-NL"",""screen_resolution"":[1440,900],""platform"":""MacIntel"",""timezone"":""Europe/Amsterdam""}","","","","1632922714440","21","","","silk","null","true","","","0.35","1","3","0.2","filler","F","","","silk","0.81771320104599","[object SpeechRecognitionResultList]"
"907","","html-speech-API-response","65","213957","0.0-4.61-0.61","4","dutch","w00kfhnnf9mxtar","{""user_agent"":""Mozilla/5.0 (Macintosh; Intel Mac OS X 10_15_7) AppleWebKit/537.36 (KHTML, like Gecko) Chrome/94.0.4606.61 Safari/537.36"",""on_chrome"":true,""on_mobile"":false,""language"":""nl-NL"",""screen_resolution"":[1440,900],""platform"":""MacIntel"",""timezone"":""Europe/Amsterdam""}","","","","1632922718032","21","","","silk","null","false","","","0.35","1","3","0.2","filler","F","","","silk","0.8177137970924377","[object SpeechRecognitionResultList]"
"1092","","html-speech-API-response","66","217388","0.0-4.62-0.62","4","dutch","w00kfhnnf9mxtar","{""user_agent"":""Mozilla/5.0 (Macintosh; Intel Mac OS X 10_15_7) AppleWebKit/537.36 (KHTML, like Gecko) Chrome/94.0.4606.61 Safari/537.36"",""on_chrome"":true,""on_mobile"":false,""language"":""nl-NL"",""screen_resolution"":[1440,900],""platform"":""MacIntel"",""timezone"":""Europe/Amsterdam""}","","","","1632922721283","21","","","silk","null","false","","","0.35","1","3","0.2","filler","F","","","silk","0.8177130222320557","[object SpeechRecognitionResultList]"
"1186","","html-speech-API-response","67","221062","0.0-4.63-0.63","4","dutch","w00kfhnnf9mxtar","{""user_agent"":""Mozilla/5.0 (Macintosh; Intel Mac OS X 10_15_7) AppleWebKit/537.36 (KHTML, like Gecko) Chrome/94.0.4606.61 Safari/537.36"",""on_chrome"":true,""on_mobile"":false,""language"":""nl-NL"",""screen_resolution"":[1440,900],""platform"":""MacIntel"",""timezone"":""Europe/Amsterdam""}","","","","1632922724716","22","","","queen","null","true","","","0.35","1","3","0.2","filler","F","","","Queen","0.8130866885185242","[object SpeechRecognitionResultList]"
"1185","","html-speech-API-response","68","224695","0.0-4.64-0.64","4","dutch","w00kfhnnf9mxtar","{""user_agent"":""Mozilla/5.0 (Macintosh; Intel Mac OS X 10_15_7) AppleWebKit/537.36 (KHTML, like Gecko) Chrome/94.0.4606.61 Safari/537.36"",""on_chrome"":true,""on_mobile"":false,""language"":""nl-NL"",""screen_resolution"":[1440,900],""platform"":""MacIntel"",""timezone"":""Europe/Amsterdam""}","","","","1632922728389","22","","","queen","null","false","","","0.35","1","3","0.2","filler","F","","","Queen","0.8130865097045898","[object SpeechRecognitionResultList]"
"1276","","html-speech-API-response","69","228397","0.0-4.65-0.65","4","dutch","w00kfhnnf9mxtar","{""user_agent"":""Mozilla/5.0 (Macintosh; Intel Mac OS X 10_15_7) AppleWebKit/537.36 (KHTML, like Gecko) Chrome/94.0.4606.61 Safari/537.36"",""on_chrome"":true,""on_mobile"":false,""language"":""nl-NL"",""screen_resolution"":[1440,900],""platform"":""MacIntel"",""timezone"":""Europe/Amsterdam""}","","","","1632922732023","22","","","queen","null","false","","","0.35","1","3","0.2","filler","F","","","Queen","0.8131282925605774","[object SpeechRecognitionResultList]"
"1187","","html-speech-API-response","70","232058","0.0-4.66-0.66","4","dutch","w00kfhnnf9mxtar","{""user_agent"":""Mozilla/5.0 (Macintosh; Intel Mac OS X 10_15_7) AppleWebKit/537.36 (KHTML, like Gecko) Chrome/94.0.4606.61 Safari/537.36"",""on_chrome"":true,""on_mobile"":false,""language"":""nl-NL"",""screen_resolution"":[1440,900],""platform"":""MacIntel"",""timezone"":""Europe/Amsterdam""}","","","","1632922735727","23","","","ornament","null","true","","","0.35","1","3","0.2","filler","F","","","ornament","0.9546766877174377","[object SpeechRecognitionResultList]"
"1091","","html-speech-API-response","71","235571","0.0-4.67-0.67","4","dutch","w00kfhnnf9mxtar","{""user_agent"":""Mozilla/5.0 (Macintosh; Intel Mac OS X 10_15_7) AppleWebKit/537.36 (KHTML, like Gecko) Chrome/94.0.4606.61 Safari/537.36"",""on_chrome"":true,""on_mobile"":false,""language"":""nl-NL"",""screen_resolution"":[1440,900],""platform"":""MacIntel"",""timezone"":""Europe/Amsterdam""}","","","","1632922739386","23","","","ornament","null","false","","","0.35","1","3","0.2","filler","F","","","ornaments","0.9118622541427612","[object SpeechRecognitionResultList]"
"1185","","html-speech-API-response","72","239288","0.0-4.68-0.68","4","dutch","w00kfhnnf9mxtar","{""user_agent"":""Mozilla/5.0 (Macintosh; Intel Mac OS X 10_15_7) AppleWebKit/537.36 (KHTML, like Gecko) Chrome/94.0.4606.61 Safari/537.36"",""on_chrome"":true,""on_mobile"":false,""language"":""nl-NL"",""screen_resolution"":[1440,900],""platform"":""MacIntel"",""timezone"":""Europe/Amsterdam""}","","","","1632922742899","23","","","ornament","null","false","","","0.35","1","3","0.2","filler","F","","","ornament","0.9546766877174377","[object SpeechRecognitionResultList]"
"1310","","html-speech-API-response","73","242952","0.0-4.69-0.69","4","dutch","w00kfhnnf9mxtar","{""user_agent"":""Mozilla/5.0 (Macintosh; Intel Mac OS X 10_15_7) AppleWebKit/537.36 (KHTML, like Gecko) Chrome/94.0.4606.61 Safari/537.36"",""on_chrome"":true,""on_mobile"":false,""language"":""nl-NL"",""screen_resolution"":[1440,900],""platform"":""MacIntel"",""timezone"":""Europe/Amsterdam""}","","","","1632922746617","24","","","carpet","null","true","","","0.35","1","3","0.2","filler","F","","","carpet","0.882192075252533","[object SpeechRecognitionResultList]"
"1187","","html-speech-API-response","74","246311","0.0-4.70-0.70","4","dutch","w00kfhnnf9mxtar","{""user_agent"":""Mozilla/5.0 (Macintosh; Intel Mac OS X 10_15_7) AppleWebKit/537.36 (KHTML, like Gecko) Chrome/94.0.4606.61 Safari/537.36"",""on_chrome"":true,""on_mobile"":false,""language"":""nl-NL"",""screen_resolution"":[1440,900],""platform"":""MacIntel"",""timezone"":""Europe/Amsterdam""}","","","","1632922750279","24","","","carpet","null","false","","","0.35","1","3","0.2","filler","F","","","carpet","0.8843448162078857","[object SpeechRecognitionResultList]"
"1555","","html-speech-API-response","75","249987","0.0-4.71-0.71","4","dutch","w00kfhnnf9mxtar","{""user_agent"":""Mozilla/5.0 (Macintosh; Intel Mac OS X 10_15_7) AppleWebKit/537.36 (KHTML, like Gecko) Chrome/94.0.4606.61 Safari/537.36"",""on_chrome"":true,""on_mobile"":false,""language"":""nl-NL"",""screen_resolution"":[1440,900],""platform"":""MacIntel"",""timezone"":""Europe/Amsterdam""}","","","","1632922753640","24","","","carpet","null","false","","","0.35","1","3","0.2","filler","F","","","carpet","0.8869619369506836","[object SpeechRecognitionResultList]"
"1280","","html-speech-API-response","76","253715","0.0-4.72-0.72","4","dutch","w00kfhnnf9mxtar","{""user_agent"":""Mozilla/5.0 (Macintosh; Intel Mac OS X 10_15_7) AppleWebKit/537.36 (KHTML, like Gecko) Chrome/94.0.4606.61 Safari/537.36"",""on_chrome"":true,""on_mobile"":false,""language"":""nl-NL"",""screen_resolution"":[1440,900],""platform"":""MacIntel"",""timezone"":""Europe/Amsterdam""}","","","","1632922757315","25","","","barrel","null","true","","","0.35","1","3","0.2","filler","F","","","barrel","0.8385388851165771","[object SpeechRecognitionResultList]"
"1090","","html-speech-API-response","77","257217","0.0-4.73-0.73","4","dutch","w00kfhnnf9mxtar","{""user_agent"":""Mozilla/5.0 (Macintosh; Intel Mac OS X 10_15_7) AppleWebKit/537.36 (KHTML, like Gecko) Chrome/94.0.4606.61 Safari/537.36"",""on_chrome"":true,""on_mobile"":false,""language"":""nl-NL"",""screen_resolution"":[1440,900],""platform"":""MacIntel"",""timezone"":""Europe/Amsterdam""}","","","","1632922761041","25","","","barrel","null","false","","","0.35","1","3","0.2","filler","F","","","Daryl","0.8464109897613525","[object SpeechRecognitionResultList]"
"999","","html-speech-API-response","78","260719","0.0-4.74-0.74","4","dutch","w00kfhnnf9mxtar","{""user_agent"":""Mozilla/5.0 (Macintosh; Intel Mac OS X 10_15_7) AppleWebKit/537.36 (KHTML, like Gecko) Chrome/94.0.4606.61 Safari/537.36"",""on_chrome"":true,""on_mobile"":false,""language"":""nl-NL"",""screen_resolution"":[1440,900],""platform"":""MacIntel"",""timezone"":""Europe/Amsterdam""}","","","","1632922764545","25","","","barrel","null","false","","","0.35","1","3","0.2","filler","F","","","barrel","0.8197497129440308","[object SpeechRecognitionResultList]"
"1187","","html-speech-API-response","79","264311","0.0-4.75-0.75","4","dutch","w00kfhnnf9mxtar","{""user_agent"":""Mozilla/5.0 (Macintosh; Intel Mac OS X 10_15_7) AppleWebKit/537.36 (KHTML, like Gecko) Chrome/94.0.4606.61 Safari/537.36"",""on_chrome"":true,""on_mobile"":false,""language"":""nl-NL"",""screen_resolution"":[1440,900],""platform"":""MacIntel"",""timezone"":""Europe/Amsterdam""}","","","","1632922768047","26","","","rumour","null","true","","","0.35","1","3","0.2","filler","F","","","rumour","0.8580470085144043","[object SpeechRecognitionResultList]"
"1091","","html-speech-API-response","80","267748","0.0-4.76-0.76","4","dutch","w00kfhnnf9mxtar","{""user_agent"":""Mozilla/5.0 (Macintosh; Intel Mac OS X 10_15_7) AppleWebKit/537.36 (KHTML, like Gecko) Chrome/94.0.4606.61 Safari/537.36"",""on_chrome"":true,""on_mobile"":false,""language"":""nl-NL"",""screen_resolution"":[1440,900],""platform"":""MacIntel"",""timezone"":""Europe/Amsterdam""}","","","","1632922771638","26","","","rumour","null","false","","","0.35","1","3","0.2","filler","F","","","rumour","0.862255334854126","[object SpeechRecognitionResultList]"
"1183","","html-speech-API-response","81","271363","0.0-4.77-0.77","4","dutch","w00kfhnnf9mxtar","{""user_agent"":""Mozilla/5.0 (Macintosh; Intel Mac OS X 10_15_7) AppleWebKit/537.36 (KHTML, like Gecko) Chrome/94.0.4606.61 Safari/537.36"",""on_chrome"":true,""on_mobile"":false,""language"":""nl-NL"",""screen_resolution"":[1440,900],""platform"":""MacIntel"",""timezone"":""Europe/Amsterdam""}","","","","1632922775077","26","","","rumour","null","false","","","0.35","1","3","0.2","filler","F","","","rumour","0.857840895652771","[object SpeechRecognitionResultList]"
"1187","","html-speech-API-response","82","275002","0.0-4.78-0.78","4","dutch","w00kfhnnf9mxtar","{""user_agent"":""Mozilla/5.0 (Macintosh; Intel Mac OS X 10_15_7) AppleWebKit/537.36 (KHTML, like Gecko) Chrome/94.0.4606.61 Safari/537.36"",""on_chrome"":true,""on_mobile"":false,""language"":""nl-NL"",""screen_resolution"":[1440,900],""platform"":""MacIntel"",""timezone"":""Europe/Amsterdam""}","","","","1632922778691","27","","","curtain","null","true","","","0.35","1","3","0.2","filler","F","","","curtain","0.7379974722862244","[object SpeechRecognitionResultList]"
"1183","","html-speech-API-response","83","278560","0.0-4.79-0.79","4","dutch","w00kfhnnf9mxtar","{""user_agent"":""Mozilla/5.0 (Macintosh; Intel Mac OS X 10_15_7) AppleWebKit/537.36 (KHTML, like Gecko) Chrome/94.0.4606.61 Safari/537.36"",""on_chrome"":true,""on_mobile"":false,""language"":""nl-NL"",""screen_resolution"":[1440,900],""platform"":""MacIntel"",""timezone"":""Europe/Amsterdam""}","","","","1632922782330","27","","","curtain","null","false","","","0.35","1","3","0.2","filler","F","","","curtain","0.8033261299133301","[object SpeechRecognitionResultList]"
"1092","","html-speech-API-response","84","281980","0.0-4.80-0.80","4","dutch","w00kfhnnf9mxtar","{""user_agent"":""Mozilla/5.0 (Macintosh; Intel Mac OS X 10_15_7) AppleWebKit/537.36 (KHTML, like Gecko) Chrome/94.0.4606.61 Safari/537.36"",""on_chrome"":true,""on_mobile"":false,""language"":""nl-NL"",""screen_resolution"":[1440,900],""platform"":""MacIntel"",""timezone"":""Europe/Amsterdam""}","","","","1632922785887","27","","","curtain","null","false","","","0.35","1","3","0.2","filler","F","","","curtain","0.3005823791027069","[object SpeechRecognitionResultList]"
"1098","","html-speech-API-response","85","285494","0.0-4.81-0.81","4","dutch","w00kfhnnf9mxtar","{""user_agent"":""Mozilla/5.0 (Macintosh; Intel Mac OS X 10_15_7) AppleWebKit/537.36 (KHTML, like Gecko) Chrome/94.0.4606.61 Safari/537.36"",""on_chrome"":true,""on_mobile"":false,""language"":""nl-NL"",""screen_resolution"":[1440,900],""platform"":""MacIntel"",""timezone"":""Europe/Amsterdam""}","","","","1632922789308","28","","","snow","null","true","","","0.35","1","3","0.2","filler","F","","","snow","0.8791348934173584","[object SpeechRecognitionResultList]"
"1183","","html-speech-API-response","86","289110","0.0-4.82-0.82","4","dutch","w00kfhnnf9mxtar","{""user_agent"":""Mozilla/5.0 (Macintosh; Intel Mac OS X 10_15_7) AppleWebKit/537.36 (KHTML, like Gecko) Chrome/94.0.4606.61 Safari/537.36"",""on_chrome"":true,""on_mobile"":false,""language"":""nl-NL"",""screen_resolution"":[1440,900],""platform"":""MacIntel"",""timezone"":""Europe/Amsterdam""}","","","","1632922792822","28","","","snow","null","false","","","0.35","1","3","0.2","filler","F","","","snow","0.8789984583854675","[object SpeechRecognitionResultList]"
"1092","","html-speech-API-response","87","292665","0.0-4.83-0.83","4","dutch","w00kfhnnf9mxtar","{""user_agent"":""Mozilla/5.0 (Macintosh; Intel Mac OS X 10_15_7) AppleWebKit/537.36 (KHTML, like Gecko) Chrome/94.0.4606.61 Safari/537.36"",""on_chrome"":true,""on_mobile"":false,""language"":""nl-NL"",""screen_resolution"":[1440,900],""platform"":""MacIntel"",""timezone"":""Europe/Amsterdam""}","","","","1632922796438","28","","","snow","null","false","","","0.35","1","3","0.2","filler","F","","","snow","0.8791356682777405","[object SpeechRecognitionResultList]"
"1091","","html-speech-API-response","88","295981","0.0-4.84-0.84","4","dutch","w00kfhnnf9mxtar","{""user_agent"":""Mozilla/5.0 (Macintosh; Intel Mac OS X 10_15_7) AppleWebKit/537.36 (KHTML, like Gecko) Chrome/94.0.4606.61 Safari/537.36"",""on_chrome"":true,""on_mobile"":false,""language"":""nl-NL"",""screen_resolution"":[1440,900],""platform"":""MacIntel"",""timezone"":""Europe/Amsterdam""}","","","","1632922799994","29","","","monkey","null","true","","","0.35","1","3","0.2","filler","F","","","monkey","0.8929410576820374","[object SpeechRecognitionResultList]"
"1090","","html-speech-API-response","89","299602","0.0-4.85-0.85","4","dutch","w00kfhnnf9mxtar","{""user_agent"":""Mozilla/5.0 (Macintosh; Intel Mac OS X 10_15_7) AppleWebKit/537.36 (KHTML, like Gecko) Chrome/94.0.4606.61 Safari/537.36"",""on_chrome"":true,""on_mobile"":false,""language"":""nl-NL"",""screen_resolution"":[1440,900],""platform"":""MacIntel"",""timezone"":""Europe/Amsterdam""}","","","","1632922803308","29","","","monkey","null","false","","","0.35","1","3","0.2","filler","F","","","monkey","0.8928244113922119","[object SpeechRecognitionResultList]"
"1090","","html-speech-API-response","90","303054","0.0-4.86-0.86","4","dutch","w00kfhnnf9mxtar","{""user_agent"":""Mozilla/5.0 (Macintosh; Intel Mac OS X 10_15_7) AppleWebKit/537.36 (KHTML, like Gecko) Chrome/94.0.4606.61 Safari/537.36"",""on_chrome"":true,""on_mobile"":false,""language"":""nl-NL"",""screen_resolution"":[1440,900],""platform"":""MacIntel"",""timezone"":""Europe/Amsterdam""}","","","","1632922806929","29","","","monkey","null","false","","","0.35","1","3","0.2","filler","F","","","monkey","0.8929408192634583","[object SpeechRecognitionResultList]"
"1090","","html-speech-API-response","91","306672","0.0-4.87-0.87","4","dutch","w00kfhnnf9mxtar","{""user_agent"":""Mozilla/5.0 (Macintosh; Intel Mac OS X 10_15_7) AppleWebKit/537.36 (KHTML, like Gecko) Chrome/94.0.4606.61 Safari/537.36"",""on_chrome"":true,""on_mobile"":false,""language"":""nl-NL"",""screen_resolution"":[1440,900],""platform"":""MacIntel"",""timezone"":""Europe/Amsterdam""}","","","","1632922810382","30","","","steam","null","true","","","0.35","1","3","0.2","filler","F","","","steam","0.8249362707138062","[object SpeechRecognitionResultList]"
"1092","","html-speech-API-response","92","310304","0.0-4.88-0.88","4","dutch","w00kfhnnf9mxtar","{""user_agent"":""Mozilla/5.0 (Macintosh; Intel Mac OS X 10_15_7) AppleWebKit/537.36 (KHTML, like Gecko) Chrome/94.0.4606.61 Safari/537.36"",""on_chrome"":true,""on_mobile"":false,""language"":""nl-NL"",""screen_resolution"":[1440,900],""platform"":""MacIntel"",""timezone"":""Europe/Amsterdam""}","","","","1632922814000","30","","","steam","null","false","","","0.35","1","3","0.2","filler","F","","","steam","0.8249374628067017","[object SpeechRecognitionResultList]"
"1556","","html-speech-API-response","93","314263","0.0-4.89-0.89","4","dutch","w00kfhnnf9mxtar","{""user_agent"":""Mozilla/5.0 (Macintosh; Intel Mac OS X 10_15_7) AppleWebKit/537.36 (KHTML, like Gecko) Chrome/94.0.4606.61 Safari/537.36"",""on_chrome"":true,""on_mobile"":false,""language"":""nl-NL"",""screen_resolution"":[1440,900],""platform"":""MacIntel"",""timezone"":""Europe/Amsterdam""}","","","","1632922817632","30","","","steam","null","false","","","0.35","1","3","0.2","filler","F","","","steam","0.8249362707138062","[object SpeechRecognitionResultList]"
"1092","","html-speech-API-response","94","318114","0.0-4.90-0.90","4","dutch","w00kfhnnf9mxtar","{""user_agent"":""Mozilla/5.0 (Macintosh; Intel Mac OS X 10_15_7) AppleWebKit/537.36 (KHTML, like Gecko) Chrome/94.0.4606.61 Safari/537.36"",""on_chrome"":true,""on_mobile"":false,""language"":""nl-NL"",""screen_resolution"":[1440,900],""platform"":""MacIntel"",""timezone"":""Europe/Amsterdam""}","","","","1632922821591","31","","","leisure","null","true","","","0.35","1","3","0.2","filler","F","","","Leisure","0.8651581406593323","[object SpeechRecognitionResultList]"
"1000","","html-speech-API-response","95","321601","0.0-4.91-0.91","4","dutch","w00kfhnnf9mxtar","{""user_agent"":""Mozilla/5.0 (Macintosh; Intel Mac OS X 10_15_7) AppleWebKit/537.36 (KHTML, like Gecko) Chrome/94.0.4606.61 Safari/537.36"",""on_chrome"":true,""on_mobile"":false,""language"":""nl-NL"",""screen_resolution"":[1440,900],""platform"":""MacIntel"",""timezone"":""Europe/Amsterdam""}","","","","1632922825441","31","","","leisure","null","false","","","0.35","1","3","0.2","filler","F","","","Leisure","0.8667972683906555","[object SpeechRecognitionResultList]"
"1000","","html-speech-API-response","96","325201","0.0-4.92-0.92","4","dutch","w00kfhnnf9mxtar","{""user_agent"":""Mozilla/5.0 (Macintosh; Intel Mac OS X 10_15_7) AppleWebKit/537.36 (KHTML, like Gecko) Chrome/94.0.4606.61 Safari/537.36"",""on_chrome"":true,""on_mobile"":false,""language"":""nl-NL"",""screen_resolution"":[1440,900],""platform"":""MacIntel"",""timezone"":""Europe/Amsterdam""}","","","","1632922828930","31","","","leisure","null","false","","","0.35","1","3","0.2","filler","F","","","Leisure","0.8667970299720764","[object SpeechRecognitionResultList]"
"1102","","html-speech-API-response","97","328809","0.0-4.93-0.93","4","dutch","w00kfhnnf9mxtar","{""user_agent"":""Mozilla/5.0 (Macintosh; Intel Mac OS X 10_15_7) AppleWebKit/537.36 (KHTML, like Gecko) Chrome/94.0.4606.61 Safari/537.36"",""on_chrome"":true,""on_mobile"":false,""language"":""nl-NL"",""screen_resolution"":[1440,900],""platform"":""MacIntel"",""timezone"":""Europe/Amsterdam""}","","","","1632922832529","32","","","grave","null","true","","","0.35","1","3","0.2","filler","F","","","graze","0.3119778633117676","[object SpeechRecognitionResultList]"
"816","","html-speech-API-response","98","332109","0.0-4.94-0.94","4","dutch","w00kfhnnf9mxtar","{""user_agent"":""Mozilla/5.0 (Macintosh; Intel Mac OS X 10_15_7) AppleWebKit/537.36 (KHTML, like Gecko) Chrome/94.0.4606.61 Safari/537.36"",""on_chrome"":true,""on_mobile"":false,""language"":""nl-NL"",""screen_resolution"":[1440,900],""platform"":""MacIntel"",""timezone"":""Europe/Amsterdam""}","","","","1632922836138","32","","","grave","null","false","","","0.35","1","3","0.2","filler","F","","","grave","0.8282234072685242","[object SpeechRecognitionResultList]"
"999","","html-speech-API-response","99","335668","0.0-4.95-0.95","4","dutch","w00kfhnnf9mxtar","{""user_agent"":""Mozilla/5.0 (Macintosh; Intel Mac OS X 10_15_7) AppleWebKit/537.36 (KHTML, like Gecko) Chrome/94.0.4606.61 Safari/537.36"",""on_chrome"":true,""on_mobile"":false,""language"":""nl-NL"",""screen_resolution"":[1440,900],""platform"":""MacIntel"",""timezone"":""Europe/Amsterdam""}","","","","1632922839435","32","","","grave","null","false","","","0.35","1","3","0.2","filler","F","","","grave","0.9546766877174377","[object SpeechRecognitionResultList]"
"1094","","html-speech-API-response","100","339194","0.0-4.96-0.96","4","dutch","w00kfhnnf9mxtar","{""user_agent"":""Mozilla/5.0 (Macintosh; Intel Mac OS X 10_15_7) AppleWebKit/537.36 (KHTML, like Gecko) Chrome/94.0.4606.61 Safari/537.36"",""on_chrome"":true,""on_mobile"":false,""language"":""nl-NL"",""screen_resolution"":[1440,900],""platform"":""MacIntel"",""timezone"":""Europe/Amsterdam""}","","","","1632922842995","33","","","friend","null","true","","","0.35","1","3","0.2","filler","F","","","friend","0.8856719732284546","[object SpeechRecognitionResultList]"
"1092","","html-speech-API-response","101","342634","0.0-4.97-0.97","4","dutch","w00kfhnnf9mxtar","{""user_agent"":""Mozilla/5.0 (Macintosh; Intel Mac OS X 10_15_7) AppleWebKit/537.36 (KHTML, like Gecko) Chrome/94.0.4606.61 Safari/537.36"",""on_chrome"":true,""on_mobile"":false,""language"":""nl-NL"",""screen_resolution"":[1440,900],""platform"":""MacIntel"",""timezone"":""Europe/Amsterdam""}","","","","1632922846522","33","","","friend","null","false","","","0.35","1","3","0.2","filler","F","","","friend","0.8856576681137085","[object SpeechRecognitionResultList]"
"1093","","html-speech-API-response","102","346054","0.0-4.98-0.98","4","dutch","w00kfhnnf9mxtar","{""user_agent"":""Mozilla/5.0 (Macintosh; Intel Mac OS X 10_15_7) AppleWebKit/537.36 (KHTML, like Gecko) Chrome/94.0.4606.61 Safari/537.36"",""on_chrome"":true,""on_mobile"":false,""language"":""nl-NL"",""screen_resolution"":[1440,900],""platform"":""MacIntel"",""timezone"":""Europe/Amsterdam""}","","","","1632922849962","33","","","friend","null","false","","","0.35","1","3","0.2","filler","F","","","friend","0.8856576085090637","[object SpeechRecognitionResultList]"
"1092","","html-speech-API-response","103","349451","0.0-4.99-0.99","4","dutch","w00kfhnnf9mxtar","{""user_agent"":""Mozilla/5.0 (Macintosh; Intel Mac OS X 10_15_7) AppleWebKit/537.36 (KHTML, like Gecko) Chrome/94.0.4606.61 Safari/537.36"",""on_chrome"":true,""on_mobile"":false,""language"":""nl-NL"",""screen_resolution"":[1440,900],""platform"":""MacIntel"",""timezone"":""Europe/Amsterdam""}","","","","1632922853382","34","","","prayer","null","true","","","0.35","1","3","0.2","filler","F","","","prayer","0.8250468373298645","[object SpeechRecognitionResultList]"
"1001","","html-speech-API-response","104","352809","0.0-4.100-0.100","4","dutch","w00kfhnnf9mxtar","{""user_agent"":""Mozilla/5.0 (Macintosh; Intel Mac OS X 10_15_7) AppleWebKit/537.36 (KHTML, like Gecko) Chrome/94.0.4606.61 Safari/537.36"",""on_chrome"":true,""on_mobile"":false,""language"":""nl-NL"",""screen_resolution"":[1440,900],""platform"":""MacIntel"",""timezone"":""Europe/Amsterdam""}","","","","1632922856779","34","","","prayer","null","false","","","0.35","1","3","0.2","filler","F","","","prayer","0.7911297678947449","[object SpeechRecognitionResultList]"
"1001","","html-speech-API-response","105","356253","0.0-4.101-0.101","4","dutch","w00kfhnnf9mxtar","{""user_agent"":""Mozilla/5.0 (Macintosh; Intel Mac OS X 10_15_7) AppleWebKit/537.36 (KHTML, like Gecko) Chrome/94.0.4606.61 Safari/537.36"",""on_chrome"":true,""on_mobile"":false,""language"":""nl-NL"",""screen_resolution"":[1440,900],""platform"":""MacIntel"",""timezone"":""Europe/Amsterdam""}","","","","1632922860136","34","","","prayer","null","false","","","0.35","1","3","0.2","filler","F","","","prayer","0.8274984359741211","[object SpeechRecognitionResultList]"
"1185","","html-speech-API-response","106","359785","0.0-4.102-0.102","4","dutch","w00kfhnnf9mxtar","{""user_agent"":""Mozilla/5.0 (Macintosh; Intel Mac OS X 10_15_7) AppleWebKit/537.36 (KHTML, like Gecko) Chrome/94.0.4606.61 Safari/537.36"",""on_chrome"":true,""on_mobile"":false,""language"":""nl-NL"",""screen_resolution"":[1440,900],""platform"":""MacIntel"",""timezone"":""Europe/Amsterdam""}","","","","1632922863581","35","","","shorts","null","true","","","0.35","1","3","0.2","filler","F","","","shorts","0.9394731521606445","[object SpeechRecognitionResultList]"
"1093","","html-speech-API-response","107","363363","0.0-4.103-0.103","4","dutch","w00kfhnnf9mxtar","{""user_agent"":""Mozilla/5.0 (Macintosh; Intel Mac OS X 10_15_7) AppleWebKit/537.36 (KHTML, like Gecko) Chrome/94.0.4606.61 Safari/537.36"",""on_chrome"":true,""on_mobile"":false,""language"":""nl-NL"",""screen_resolution"":[1440,900],""platform"":""MacIntel"",""timezone"":""Europe/Amsterdam""}","","","","1632922867113","35","","","shorts","null","false","","","0.35","1","3","0.2","filler","F","","","shorts","0.9546766877174377","[object SpeechRecognitionResultList]"
"1094","","html-speech-API-response","108","366802","0.0-4.104-0.104","4","dutch","w00kfhnnf9mxtar","{""user_agent"":""Mozilla/5.0 (Macintosh; Intel Mac OS X 10_15_7) AppleWebKit/537.36 (KHTML, like Gecko) Chrome/94.0.4606.61 Safari/537.36"",""on_chrome"":true,""on_mobile"":false,""language"":""nl-NL"",""screen_resolution"":[1440,900],""platform"":""MacIntel"",""timezone"":""Europe/Amsterdam""}","","","","1632922870691","35","","","shorts","null","false","","","0.35","1","3","0.2","filler","F","","","shorts","0.9546766877174377","[object SpeechRecognitionResultList]"
"1093","","html-speech-API-response","109","370239","0.0-4.105-0.105","4","dutch","w00kfhnnf9mxtar","{""user_agent"":""Mozilla/5.0 (Macintosh; Intel Mac OS X 10_15_7) AppleWebKit/537.36 (KHTML, like Gecko) Chrome/94.0.4606.61 Safari/537.36"",""on_chrome"":true,""on_mobile"":false,""language"":""nl-NL"",""screen_resolution"":[1440,900],""platform"":""MacIntel"",""timezone"":""Europe/Amsterdam""}","","","","1632922874131","36","","","boat","null","true","","","0.35","1","3","0.2","filler","F","","","note","0.8647466897964478","[object SpeechRecognitionResultList]"
"999","","html-speech-API-response","110","373610","0.0-4.106-0.106","4","dutch","w00kfhnnf9mxtar","{""user_agent"":""Mozilla/5.0 (Macintosh; Intel Mac OS X 10_15_7) AppleWebKit/537.36 (KHTML, like Gecko) Chrome/94.0.4606.61 Safari/537.36"",""on_chrome"":true,""on_mobile"":false,""language"":""nl-NL"",""screen_resolution"":[1440,900],""platform"":""MacIntel"",""timezone"":""Europe/Amsterdam""}","","","","1632922877566","36","","","boat","null","false","","","0.35","1","3","0.2","filler","F","","","boat","0.8896533250808716","[object SpeechRecognitionResultList]"
"999","","html-speech-API-response","111","376917","0.0-4.107-0.107","4","dutch","w00kfhnnf9mxtar","{""user_agent"":""Mozilla/5.0 (Macintosh; Intel Mac OS X 10_15_7) AppleWebKit/537.36 (KHTML, like Gecko) Chrome/94.0.4606.61 Safari/537.36"",""on_chrome"":true,""on_mobile"":false,""language"":""nl-NL"",""screen_resolution"":[1440,900],""platform"":""MacIntel"",""timezone"":""Europe/Amsterdam""}","","","","1632922880939","36","","","boat","null","false","","","0.35","1","3","0.2","filler","F","","","boat","0.9034630060195923","[object SpeechRecognitionResultList]"
"1093","","html-speech-API-response","112","380462","0.0-4.108-0.108","4","dutch","w00kfhnnf9mxtar","{""user_agent"":""Mozilla/5.0 (Macintosh; Intel Mac OS X 10_15_7) AppleWebKit/537.36 (KHTML, like Gecko) Chrome/94.0.4606.61 Safari/537.36"",""on_chrome"":true,""on_mobile"":false,""language"":""nl-NL"",""screen_resolution"":[1440,900],""platform"":""MacIntel"",""timezone"":""Europe/Amsterdam""}","","","","1632922884245","37","","","donkey","null","true","","","0.35","1","3","0.2","filler","F","","","donkey","0.8642245531082153","[object SpeechRecognitionResultList]"
"999","","html-speech-API-response","113","383925","0.0-4.109-0.109","4","dutch","w00kfhnnf9mxtar","{""user_agent"":""Mozilla/5.0 (Macintosh; Intel Mac OS X 10_15_7) AppleWebKit/537.36 (KHTML, like Gecko) Chrome/94.0.4606.61 Safari/537.36"",""on_chrome"":true,""on_mobile"":false,""language"":""nl-NL"",""screen_resolution"":[1440,900],""platform"":""MacIntel"",""timezone"":""Europe/Amsterdam""}","","","","1632922887790","37","","","donkey","null","false","","","0.35","1","3","0.2","filler","F","","","donkey","0.8652489185333252","[object SpeechRecognitionResultList]"
"907","","html-speech-API-response","114","387278","0.0-4.110-0.110","4","dutch","w00kfhnnf9mxtar","{""user_agent"":""Mozilla/5.0 (Macintosh; Intel Mac OS X 10_15_7) AppleWebKit/537.36 (KHTML, like Gecko) Chrome/94.0.4606.61 Safari/537.36"",""on_chrome"":true,""on_mobile"":false,""language"":""nl-NL"",""screen_resolution"":[1440,900],""platform"":""MacIntel"",""timezone"":""Europe/Amsterdam""}","","","","1632922891254","37","","","donkey","null","false","","","0.35","1","3","0.2","filler","F","","","donkey","0.8591606616973877","[object SpeechRecognitionResultList]"
"1094","","html-speech-API-response","115","390708","0.0-4.111-0.111","4","dutch","w00kfhnnf9mxtar","{""user_agent"":""Mozilla/5.0 (Macintosh; Intel Mac OS X 10_15_7) AppleWebKit/537.36 (KHTML, like Gecko) Chrome/94.0.4606.61 Safari/537.36"",""on_chrome"":true,""on_mobile"":false,""language"":""nl-NL"",""screen_resolution"":[1440,900],""platform"":""MacIntel"",""timezone"":""Europe/Amsterdam""}","","","","1632922894606","38","","","sleep","null","true","","","0.35","1","3","0.2","filler","F","","","sleep","0.9213560819625854","[object SpeechRecognitionResultList]"
"905","","html-speech-API-response","116","393950","0.0-4.112-0.112","4","dutch","w00kfhnnf9mxtar","{""user_agent"":""Mozilla/5.0 (Macintosh; Intel Mac OS X 10_15_7) AppleWebKit/537.36 (KHTML, like Gecko) Chrome/94.0.4606.61 Safari/537.36"",""on_chrome"":true,""on_mobile"":false,""language"":""nl-NL"",""screen_resolution"":[1440,900],""platform"":""MacIntel"",""timezone"":""Europe/Amsterdam""}","","","","1632922898035","38","","","sleep","null","false","","","0.35","1","3","0.2","filler","F","","","sleep","0.9213549494743347","[object SpeechRecognitionResultList]"
"1090","","html-speech-API-response","117","397396","0.0-4.113-0.113","4","dutch","w00kfhnnf9mxtar","{""user_agent"":""Mozilla/5.0 (Macintosh; Intel Mac OS X 10_15_7) AppleWebKit/537.36 (KHTML, like Gecko) Chrome/94.0.4606.61 Safari/537.36"",""on_chrome"":true,""on_mobile"":false,""language"":""nl-NL"",""screen_resolution"":[1440,900],""platform"":""MacIntel"",""timezone"":""Europe/Amsterdam""}","","","","1632922901280","38","","","sleep","null","false","","","0.35","1","3","0.2","filler","F","","","sleep","0.9213560819625854","[object SpeechRecognitionResultList]"
"1093","","html-speech-API-response","118","400845","0.0-4.114-0.114","4","dutch","w00kfhnnf9mxtar","{""user_agent"":""Mozilla/5.0 (Macintosh; Intel Mac OS X 10_15_7) AppleWebKit/537.36 (KHTML, like Gecko) Chrome/94.0.4606.61 Safari/537.36"",""on_chrome"":true,""on_mobile"":false,""language"":""nl-NL"",""screen_resolution"":[1440,900],""platform"":""MacIntel"",""timezone"":""Europe/Amsterdam""}","","","","1632922904725","39","","","lake","null","true","","","0.35","1","3","0.2","filler","F","","","Lake","0.8288211822509766","[object SpeechRecognitionResultList]"
"907","","html-speech-API-response","119","404107","0.0-4.115-0.115","4","dutch","w00kfhnnf9mxtar","{""user_agent"":""Mozilla/5.0 (Macintosh; Intel Mac OS X 10_15_7) AppleWebKit/537.36 (KHTML, like Gecko) Chrome/94.0.4606.61 Safari/537.36"",""on_chrome"":true,""on_mobile"":false,""language"":""nl-NL"",""screen_resolution"":[1440,900],""platform"":""MacIntel"",""timezone"":""Europe/Amsterdam""}","","","","1632922908173","39","","","lake","null","false","","","0.35","1","3","0.2","filler","F","","","Lake","0.8276532292366028","[object SpeechRecognitionResultList]"
"906","","html-speech-API-response","120","407393","0.0-4.116-0.116","4","dutch","w00kfhnnf9mxtar","{""user_agent"":""Mozilla/5.0 (Macintosh; Intel Mac OS X 10_15_7) AppleWebKit/537.36 (KHTML, like Gecko) Chrome/94.0.4606.61 Safari/537.36"",""on_chrome"":true,""on_mobile"":false,""language"":""nl-NL"",""screen_resolution"":[1440,900],""platform"":""MacIntel"",""timezone"":""Europe/Amsterdam""}","","","","1632922911434","39","","","lake","null","false","","","0.35","1","3","0.2","filler","F","","","Lake","0.82882159948349","[object SpeechRecognitionResultList]"
"1092","","html-speech-API-response","121","410940","0.0-4.117-0.117","4","dutch","w00kfhnnf9mxtar","{""user_agent"":""Mozilla/5.0 (Macintosh; Intel Mac OS X 10_15_7) AppleWebKit/537.36 (KHTML, like Gecko) Chrome/94.0.4606.61 Safari/537.36"",""on_chrome"":true,""on_mobile"":false,""language"":""nl-NL"",""screen_resolution"":[1440,900],""platform"":""MacIntel"",""timezone"":""Europe/Amsterdam""}","","","","1632922914722","40","","","science","null","true","","","0.35","1","3","0.2","filler","F","","","science","0.8834856152534485","[object SpeechRecognitionResultList]"
"998","","html-speech-API-response","122","414373","0.0-4.118-0.118","4","dutch","w00kfhnnf9mxtar","{""user_agent"":""Mozilla/5.0 (Macintosh; Intel Mac OS X 10_15_7) AppleWebKit/537.36 (KHTML, like Gecko) Chrome/94.0.4606.61 Safari/537.36"",""on_chrome"":true,""on_mobile"":false,""language"":""nl-NL"",""screen_resolution"":[1440,900],""platform"":""MacIntel"",""timezone"":""Europe/Amsterdam""}","","","","1632922918267","40","","","science","null","false","","","0.35","1","3","0.2","filler","F","","","science","0.8834857940673828","[object SpeechRecognitionResultList]"
"1095","","html-speech-API-response","123","417982","0.0-4.119-0.119","4","dutch","w00kfhnnf9mxtar","{""user_agent"":""Mozilla/5.0 (Macintosh; Intel Mac OS X 10_15_7) AppleWebKit/537.36 (KHTML, like Gecko) Chrome/94.0.4606.61 Safari/537.36"",""on_chrome"":true,""on_mobile"":false,""language"":""nl-NL"",""screen_resolution"":[1440,900],""platform"":""MacIntel"",""timezone"":""Europe/Amsterdam""}","","","","1632922921701","40","","","science","null","false","","","0.35","1","3","0.2","filler","F","","","science","0.8834845423698425","[object SpeechRecognitionResultList]"
"1186","","html-speech-API-response","124","421449","0.0-4.120-0.120","4","dutch","w00kfhnnf9mxtar","{""user_agent"":""Mozilla/5.0 (Macintosh; Intel Mac OS X 10_15_7) AppleWebKit/537.36 (KHTML, like Gecko) Chrome/94.0.4606.61 Safari/537.36"",""on_chrome"":true,""on_mobile"":false,""language"":""nl-NL"",""screen_resolution"":[1440,900],""platform"":""MacIntel"",""timezone"":""Europe/Amsterdam""}","","","","1632922925310","41","","","olives","null","true","","","0.35","1","3","0.2","filler","F","","","olives","0.9546766877174377","[object SpeechRecognitionResultList]"
"1184","","html-speech-API-response","125","424860","0.0-4.121-0.121","4","dutch","w00kfhnnf9mxtar","{""user_agent"":""Mozilla/5.0 (Macintosh; Intel Mac OS X 10_15_7) AppleWebKit/537.36 (KHTML, like Gecko) Chrome/94.0.4606.61 Safari/537.36"",""on_chrome"":true,""on_mobile"":false,""language"":""nl-NL"",""screen_resolution"":[1440,900],""platform"":""MacIntel"",""timezone"":""Europe/Amsterdam""}","","","","1632922928777","41","","","olives","null","false","","","0.35","1","3","0.2","filler","F","","","olives","0.9546766877174377","[object SpeechRecognitionResultList]"
"1280","","html-speech-API-response","126","428295","0.0-4.122-0.122","4","dutch","w00kfhnnf9mxtar","{""user_agent"":""Mozilla/5.0 (Macintosh; Intel Mac OS X 10_15_7) AppleWebKit/537.36 (KHTML, like Gecko) Chrome/94.0.4606.61 Safari/537.36"",""on_chrome"":true,""on_mobile"":false,""language"":""nl-NL"",""screen_resolution"":[1440,900],""platform"":""MacIntel"",""timezone"":""Europe/Amsterdam""}","","","","1632922932188","41","","","olives","null","false","","","0.35","1","3","0.2","filler","F","","","olives","0.9546766877174377","[object SpeechRecognitionResultList]"
"1187","","html-speech-API-response","127","431845","0.0-4.123-0.123","4","dutch","w00kfhnnf9mxtar","{""user_agent"":""Mozilla/5.0 (Macintosh; Intel Mac OS X 10_15_7) AppleWebKit/537.36 (KHTML, like Gecko) Chrome/94.0.4606.61 Safari/537.36"",""on_chrome"":true,""on_mobile"":false,""language"":""nl-NL"",""screen_resolution"":[1440,900],""platform"":""MacIntel"",""timezone"":""Europe/Amsterdam""}","","","","1632922935623","42","","","honour","null","true","","","0.35","1","3","0.2","filler","F","","","honour","0.6672921180725098","[object SpeechRecognitionResultList]"
"1188","","html-speech-API-response","128","435257","0.0-4.124-0.124","4","dutch","w00kfhnnf9mxtar","{""user_agent"":""Mozilla/5.0 (Macintosh; Intel Mac OS X 10_15_7) AppleWebKit/537.36 (KHTML, like Gecko) Chrome/94.0.4606.61 Safari/537.36"",""on_chrome"":true,""on_mobile"":false,""language"":""nl-NL"",""screen_resolution"":[1440,900],""platform"":""MacIntel"",""timezone"":""Europe/Amsterdam""}","","","","1632922939174","42","","","honour","null","false","","","0.35","1","3","0.2","filler","F","","","honour","0.9201652407646179","[object SpeechRecognitionResultList]"
"1277","","html-speech-API-response","129","438915","0.0-4.125-0.125","4","dutch","w00kfhnnf9mxtar","{""user_agent"":""Mozilla/5.0 (Macintosh; Intel Mac OS X 10_15_7) AppleWebKit/537.36 (KHTML, like Gecko) Chrome/94.0.4606.61 Safari/537.36"",""on_chrome"":true,""on_mobile"":false,""language"":""nl-NL"",""screen_resolution"":[1440,900],""platform"":""MacIntel"",""timezone"":""Europe/Amsterdam""}","","","","1632922942585","42","","","honour","null","false","","","0.35","1","3","0.2","filler","F","","","honour","0.9330577850341797","[object SpeechRecognitionResultList]"
"1187","","html-speech-API-response","130","442519","0.0-4.126-0.126","4","dutch","w00kfhnnf9mxtar","{""user_agent"":""Mozilla/5.0 (Macintosh; Intel Mac OS X 10_15_7) AppleWebKit/537.36 (KHTML, like Gecko) Chrome/94.0.4606.61 Safari/537.36"",""on_chrome"":true,""on_mobile"":false,""language"":""nl-NL"",""screen_resolution"":[1440,900],""platform"":""MacIntel"",""timezone"":""Europe/Amsterdam""}","","","","1632922946244","43","","","enemy","null","true","","","0.35","1","3","0.2","filler","F","","","anime","0.9333924055099487","[object SpeechRecognitionResultList]"
"3506","","html-speech-API-response","131","448393","0.0-4.127-0.127","4","dutch","w00kfhnnf9mxtar","{""user_agent"":""Mozilla/5.0 (Macintosh; Intel Mac OS X 10_15_7) AppleWebKit/537.36 (KHTML, like Gecko) Chrome/94.0.4606.61 Safari/537.36"",""on_chrome"":true,""on_mobile"":false,""language"":""nl-NL"",""screen_resolution"":[1440,900],""platform"":""MacIntel"",""timezone"":""Europe/Amsterdam""}","","","","1632922949847","43","","","enemy","null","false","","","0.35","1","3","0.2","filler","F","","","anime anime","0.9546766877174377","[object SpeechRecognitionResultList]"
"1002","","html-speech-API-response","132","451774","0.0-4.128-0.128","4","dutch","w00kfhnnf9mxtar","{""user_agent"":""Mozilla/5.0 (Macintosh; Intel Mac OS X 10_15_7) AppleWebKit/537.36 (KHTML, like Gecko) Chrome/94.0.4606.61 Safari/537.36"",""on_chrome"":true,""on_mobile"":false,""language"":""nl-NL"",""screen_resolution"":[1440,900],""platform"":""MacIntel"",""timezone"":""Europe/Amsterdam""}","","","","1632922955722","43","","","enemy","null","false","","","0.35","1","3","0.2","filler","F","","","anime","0.9546766877174377","[object SpeechRecognitionResultList]"
"1185","","html-speech-API-response","133","455585","0.0-4.129-0.129","4","dutch","w00kfhnnf9mxtar","{""user_agent"":""Mozilla/5.0 (Macintosh; Intel Mac OS X 10_15_7) AppleWebKit/537.36 (KHTML, like Gecko) Chrome/94.0.4606.61 Safari/537.36"",""on_chrome"":true,""on_mobile"":false,""language"":""nl-NL"",""screen_resolution"":[1440,900],""platform"":""MacIntel"",""timezone"":""Europe/Amsterdam""}","","","","1632922959103","44","","","garden","null","true","","","0.35","1","3","0.2","filler","F","","","garden","0.8724749684333801","[object SpeechRecognitionResultList]"
"908","","html-speech-API-response","134","458928","0.0-4.130-0.130","4","dutch","w00kfhnnf9mxtar","{""user_agent"":""Mozilla/5.0 (Macintosh; Intel Mac OS X 10_15_7) AppleWebKit/537.36 (KHTML, like Gecko) Chrome/94.0.4606.61 Safari/537.36"",""on_chrome"":true,""on_mobile"":false,""language"":""nl-NL"",""screen_resolution"":[1440,900],""platform"":""MacIntel"",""timezone"":""Europe/Amsterdam""}","","","","1632922962913","44","","","garden","null","false","","","0.35","1","3","0.2","filler","F","","","garden","0.8714651465415955","[object SpeechRecognitionResultList]"
"1093","","html-speech-API-response","135","462473","0.0-4.131-0.131","4","dutch","w00kfhnnf9mxtar","{""user_agent"":""Mozilla/5.0 (Macintosh; Intel Mac OS X 10_15_7) AppleWebKit/537.36 (KHTML, like Gecko) Chrome/94.0.4606.61 Safari/537.36"",""on_chrome"":true,""on_mobile"":false,""language"":""nl-NL"",""screen_resolution"":[1440,900],""platform"":""MacIntel"",""timezone"":""Europe/Amsterdam""}","","","","1632922966257","44","","","garden","null","false","","","0.35","1","3","0.2","filler","F","","","garden","0.8671159148216248","[object SpeechRecognitionResultList]"
"1093","","html-speech-API-response","136","465998","0.0-4.132-0.132","4","dutch","w00kfhnnf9mxtar","{""user_agent"":""Mozilla/5.0 (Macintosh; Intel Mac OS X 10_15_7) AppleWebKit/537.36 (KHTML, like Gecko) Chrome/94.0.4606.61 Safari/537.36"",""on_chrome"":true,""on_mobile"":false,""language"":""nl-NL"",""screen_resolution"":[1440,900],""platform"":""MacIntel"",""timezone"":""Europe/Amsterdam""}","","","","1632922969802","45","","","treasure","null","true","","","0.35","1","3","0.2","filler","F","","","treasure","0.8424349427223206","[object SpeechRecognitionResultList]"
"1187","","html-speech-API-response","137","469714","0.0-4.133-0.133","4","dutch","w00kfhnnf9mxtar","{""user_agent"":""Mozilla/5.0 (Macintosh; Intel Mac OS X 10_15_7) AppleWebKit/537.36 (KHTML, like Gecko) Chrome/94.0.4606.61 Safari/537.36"",""on_chrome"":true,""on_mobile"":false,""language"":""nl-NL"",""screen_resolution"":[1440,900],""platform"":""MacIntel"",""timezone"":""Europe/Amsterdam""}","","","","1632922973326","45","","","treasure","null","false","","","0.35","1","3","0.2","filler","F","","","treasure","0.8424336314201355","[object SpeechRecognitionResultList]"
"999","","html-speech-API-response","138","473139","0.0-4.134-0.134","4","dutch","w00kfhnnf9mxtar","{""user_agent"":""Mozilla/5.0 (Macintosh; Intel Mac OS X 10_15_7) AppleWebKit/537.36 (KHTML, like Gecko) Chrome/94.0.4606.61 Safari/537.36"",""on_chrome"":true,""on_mobile"":false,""language"":""nl-NL"",""screen_resolution"":[1440,900],""platform"":""MacIntel"",""timezone"":""Europe/Amsterdam""}","","","","1632922977043","45","","","treasure","null","false","","","0.35","1","3","0.2","filler","F","","","treasure","0.8424347639083862","[object SpeechRecognitionResultList]"
"1093","","html-speech-API-response","139","476698","0.0-4.135-0.135","4","dutch","w00kfhnnf9mxtar","{""user_agent"":""Mozilla/5.0 (Macintosh; Intel Mac OS X 10_15_7) AppleWebKit/537.36 (KHTML, like Gecko) Chrome/94.0.4606.61 Safari/537.36"",""on_chrome"":true,""on_mobile"":false,""language"":""nl-NL"",""screen_resolution"":[1440,900],""platform"":""MacIntel"",""timezone"":""Europe/Amsterdam""}","","","","1632922980468","46","","","mango","null","true","","","0.35","1","3","0.2","filler","F","","","mango","0.9546766877174377","[object SpeechRecognitionResultList]"
"999","","html-speech-API-response","140","480024","0.0-4.136-0.136","4","dutch","w00kfhnnf9mxtar","{""user_agent"":""Mozilla/5.0 (Macintosh; Intel Mac OS X 10_15_7) AppleWebKit/537.36 (KHTML, like Gecko) Chrome/94.0.4606.61 Safari/537.36"",""on_chrome"":true,""on_mobile"":false,""language"":""nl-NL"",""screen_resolution"":[1440,900],""platform"":""MacIntel"",""timezone"":""Europe/Amsterdam""}","","","","1632922984027","46","","","mango","null","false","","","0.35","1","3","0.2","filler","F","","","mango","0.9546766877174377","[object SpeechRecognitionResultList]"
"1184","","html-speech-API-response","141","483617","0.0-4.137-0.137","4","dutch","w00kfhnnf9mxtar","{""user_agent"":""Mozilla/5.0 (Macintosh; Intel Mac OS X 10_15_7) AppleWebKit/537.36 (KHTML, like Gecko) Chrome/94.0.4606.61 Safari/537.36"",""on_chrome"":true,""on_mobile"":false,""language"":""nl-NL"",""screen_resolution"":[1440,900],""platform"":""MacIntel"",""timezone"":""Europe/Amsterdam""}","","","","1632922987353","46","","","mango","null","false","","","0.35","1","3","0.2","filler","F","","","mango","0.9546766877174377","[object SpeechRecognitionResultList]"
"1186","","html-speech-API-response","142","487148","0.0-4.138-0.138","4","dutch","w00kfhnnf9mxtar","{""user_agent"":""Mozilla/5.0 (Macintosh; Intel Mac OS X 10_15_7) AppleWebKit/537.36 (KHTML, like Gecko) Chrome/94.0.4606.61 Safari/537.36"",""on_chrome"":true,""on_mobile"":false,""language"":""nl-NL"",""screen_resolution"":[1440,900],""platform"":""MacIntel"",""timezone"":""Europe/Amsterdam""}","","","","1632922990945","47","","","prophet","null","true","","","0.35","1","3","0.2","filler","F","","","profit","0.8029223680496216","[object SpeechRecognitionResultList]"
"1184","","html-speech-API-response","143","490651","0.0-4.139-0.139","4","dutch","w00kfhnnf9mxtar","{""user_agent"":""Mozilla/5.0 (Macintosh; Intel Mac OS X 10_15_7) AppleWebKit/537.36 (KHTML, like Gecko) Chrome/94.0.4606.61 Safari/537.36"",""on_chrome"":true,""on_mobile"":false,""language"":""nl-NL"",""screen_resolution"":[1440,900],""platform"":""MacIntel"",""timezone"":""Europe/Amsterdam""}","","","","1632922994476","47","","","prophet","null","false","","","0.35","1","3","0.2","filler","F","","","profit","0.8025170564651489","[object SpeechRecognitionResultList]"
"812","","html-speech-API-response","144","494039","0.0-4.140-0.140","4","dutch","w00kfhnnf9mxtar","{""user_agent"":""Mozilla/5.0 (Macintosh; Intel Mac OS X 10_15_7) AppleWebKit/537.36 (KHTML, like Gecko) Chrome/94.0.4606.61 Safari/537.36"",""on_chrome"":true,""on_mobile"":false,""language"":""nl-NL"",""screen_resolution"":[1440,900],""platform"":""MacIntel"",""timezone"":""Europe/Amsterdam""}","","","","1632922997980","47","","","prophet","null","false","","","0.35","1","3","0.2","filler","F","","","profit","0.8029226660728455","[object SpeechRecognitionResultList]"
"1186","","html-speech-API-response","145","497622","0.0-4.141-0.141","4","dutch","w00kfhnnf9mxtar","{""user_agent"":""Mozilla/5.0 (Macintosh; Intel Mac OS X 10_15_7) AppleWebKit/537.36 (KHTML, like Gecko) Chrome/94.0.4606.61 Safari/537.36"",""on_chrome"":true,""on_mobile"":false,""language"":""nl-NL"",""screen_resolution"":[1440,900],""platform"":""MacIntel"",""timezone"":""Europe/Amsterdam""}","","","","1632923001368","48","","","lung","null","true","","","0.35","1","3","0.2","filler","F","","","lung","0.7694954872131348","[object SpeechRecognitionResultList]"
"1093","","html-speech-API-response","146","501218","0.0-4.142-0.142","4","dutch","w00kfhnnf9mxtar","{""user_agent"":""Mozilla/5.0 (Macintosh; Intel Mac OS X 10_15_7) AppleWebKit/537.36 (KHTML, like Gecko) Chrome/94.0.4606.61 Safari/537.36"",""on_chrome"":true,""on_mobile"":false,""language"":""nl-NL"",""screen_resolution"":[1440,900],""platform"":""MacIntel"",""timezone"":""Europe/Amsterdam""}","","","","1632923004950","48","","","lung","null","false","","","0.35","1","3","0.2","filler","F","","","lung","0.8594020009040833","[object SpeechRecognitionResultList]"
"1184","","html-speech-API-response","147","504874","0.0-4.143-0.143","4","dutch","w00kfhnnf9mxtar","{""user_agent"":""Mozilla/5.0 (Macintosh; Intel Mac OS X 10_15_7) AppleWebKit/537.36 (KHTML, like Gecko) Chrome/94.0.4606.61 Safari/537.36"",""on_chrome"":true,""on_mobile"":false,""language"":""nl-NL"",""screen_resolution"":[1440,900],""platform"":""MacIntel"",""timezone"":""Europe/Amsterdam""}","","","","1632923008544","48","","","lung","null","false","","","0.35","1","3","0.2","filler","F","","","lung","0.6900428533554077","[object SpeechRecognitionResultList]"
"813","","html-speech-API-response","148","508592","0.0-4.144-0.144","4","dutch","w00kfhnnf9mxtar","{""user_agent"":""Mozilla/5.0 (Macintosh; Intel Mac OS X 10_15_7) AppleWebKit/537.36 (KHTML, like Gecko) Chrome/94.0.4606.61 Safari/537.36"",""on_chrome"":true,""on_mobile"":false,""language"":""nl-NL"",""screen_resolution"":[1440,900],""platform"":""MacIntel"",""timezone"":""Europe/Amsterdam""}","","","","1632923012204","49","","","cotton","null","true","","","0.35","1","3","0.2","filler","F","","","garden","0.8186261653900146","[object SpeechRecognitionResultList]"
"999","","html-speech-API-response","149","511947","0.0-4.145-0.145","4","dutch","w00kfhnnf9mxtar","{""user_agent"":""Mozilla/5.0 (Macintosh; Intel Mac OS X 10_15_7) AppleWebKit/537.36 (KHTML, like Gecko) Chrome/94.0.4606.61 Safari/537.36"",""on_chrome"":true,""on_mobile"":false,""language"":""nl-NL"",""screen_resolution"":[1440,900],""platform"":""MacIntel"",""timezone"":""Europe/Amsterdam""}","","","","1632923015920","49","","","cotton","null","false","","","0.35","1","3","0.2","filler","F","","","Cotton","0.8042317628860474","[object SpeechRecognitionResultList]"
"1186","","html-speech-API-response","150","515541","0.0-4.146-0.146","4","dutch","w00kfhnnf9mxtar","{""user_agent"":""Mozilla/5.0 (Macintosh; Intel Mac OS X 10_15_7) AppleWebKit/537.36 (KHTML, like Gecko) Chrome/94.0.4606.61 Safari/537.36"",""on_chrome"":true,""on_mobile"":false,""language"":""nl-NL"",""screen_resolution"":[1440,900],""platform"":""MacIntel"",""timezone"":""Europe/Amsterdam""}","","","","1632923019275","49","","","cotton","null","false","","","0.35","1","3","0.2","filler","F","","","Cotton","0.5247402191162109","[object SpeechRecognitionResultList]"
"1372","","html-speech-API-response","151","519381","0.0-4.147-0.147","4","dutch","w00kfhnnf9mxtar","{""user_agent"":""Mozilla/5.0 (Macintosh; Intel Mac OS X 10_15_7) AppleWebKit/537.36 (KHTML, like Gecko) Chrome/94.0.4606.61 Safari/537.36"",""on_chrome"":true,""on_mobile"":false,""language"":""nl-NL"",""screen_resolution"":[1440,900],""platform"":""MacIntel"",""timezone"":""Europe/Amsterdam""}","","","","1632923022870","50","","","manure","null","true","","","0.35","1","3","0.2","filler","F","","","manure","0.9546766877174377","[object SpeechRecognitionResultList]"
"999","","html-speech-API-response","152","522996","0.0-4.148-0.148","4","dutch","w00kfhnnf9mxtar","{""user_agent"":""Mozilla/5.0 (Macintosh; Intel Mac OS X 10_15_7) AppleWebKit/537.36 (KHTML, like Gecko) Chrome/94.0.4606.61 Safari/537.36"",""on_chrome"":true,""on_mobile"":false,""language"":""nl-NL"",""screen_resolution"":[1440,900],""platform"":""MacIntel"",""timezone"":""Europe/Amsterdam""}","","","","1632923026710","50","","","manure","null","false","","","0.35","1","3","0.2","filler","F","","","manure","0.9546766877174377","[object SpeechRecognitionResultList]"
"1001","","html-speech-API-response","153","526621","0.0-4.149-0.149","4","dutch","w00kfhnnf9mxtar","{""user_agent"":""Mozilla/5.0 (Macintosh; Intel Mac OS X 10_15_7) AppleWebKit/537.36 (KHTML, like Gecko) Chrome/94.0.4606.61 Safari/537.36"",""on_chrome"":true,""on_mobile"":false,""language"":""nl-NL"",""screen_resolution"":[1440,900],""platform"":""MacIntel"",""timezone"":""Europe/Amsterdam""}","","","","1632923030325","50","","","manure","null","false","","","0.35","1","3","0.2","filler","F","","","manure","0.9546766877174377","[object SpeechRecognitionResultList]"
"1278","","html-speech-API-response","154","530334","0.0-4.150-0.150","4","dutch","w00kfhnnf9mxtar","{""user_agent"":""Mozilla/5.0 (Macintosh; Intel Mac OS X 10_15_7) AppleWebKit/537.36 (KHTML, like Gecko) Chrome/94.0.4606.61 Safari/537.36"",""on_chrome"":true,""on_mobile"":false,""language"":""nl-NL"",""screen_resolution"":[1440,900],""platform"":""MacIntel"",""timezone"":""Europe/Amsterdam""}","","","","1632923033950","51","","","sailor","null","true","","","0.35","1","3","0.2","filler","F","","","sailor","0.9546766877174377","[object SpeechRecognitionResultList]"
"1277","","html-speech-API-response","155","534043","0.0-4.151-0.151","4","dutch","w00kfhnnf9mxtar","{""user_agent"":""Mozilla/5.0 (Macintosh; Intel Mac OS X 10_15_7) AppleWebKit/537.36 (KHTML, like Gecko) Chrome/94.0.4606.61 Safari/537.36"",""on_chrome"":true,""on_mobile"":false,""language"":""nl-NL"",""screen_resolution"":[1440,900],""platform"":""MacIntel"",""timezone"":""Europe/Amsterdam""}","","","","1632923037662","51","","","sailor","null","false","","","0.35","1","3","0.2","filler","F","","","sailor","0.9546766877174377","[object SpeechRecognitionResultList]"
"1372","","html-speech-API-response","156","537841","0.0-4.152-0.152","4","dutch","w00kfhnnf9mxtar","{""user_agent"":""Mozilla/5.0 (Macintosh; Intel Mac OS X 10_15_7) AppleWebKit/537.36 (KHTML, like Gecko) Chrome/94.0.4606.61 Safari/537.36"",""on_chrome"":true,""on_mobile"":false,""language"":""nl-NL"",""screen_resolution"":[1440,900],""platform"":""MacIntel"",""timezone"":""Europe/Amsterdam""}","","","","1632923041372","51","","","sailor","null","false","","","0.35","1","3","0.2","filler","F","","","sailor","0.9546766877174377","[object SpeechRecognitionResultList]"
"1277","","html-speech-API-response","157","541880","0.0-4.153-0.153","4","dutch","w00kfhnnf9mxtar","{""user_agent"":""Mozilla/5.0 (Macintosh; Intel Mac OS X 10_15_7) AppleWebKit/537.36 (KHTML, like Gecko) Chrome/94.0.4606.61 Safari/537.36"",""on_chrome"":true,""on_mobile"":false,""language"":""nl-NL"",""screen_resolution"":[1440,900],""platform"":""MacIntel"",""timezone"":""Europe/Amsterdam""}","","","","1632923045170","52","","","society","null","true","","","0.35","1","3","0.2","filler","F","","","Society","0.8412834405899048","[object SpeechRecognitionResultList]"
"1091","","html-speech-API-response","158","545529","0.0-4.154-0.154","4","dutch","w00kfhnnf9mxtar","{""user_agent"":""Mozilla/5.0 (Macintosh; Intel Mac OS X 10_15_7) AppleWebKit/537.36 (KHTML, like Gecko) Chrome/94.0.4606.61 Safari/537.36"",""on_chrome"":true,""on_mobile"":false,""language"":""nl-NL"",""screen_resolution"":[1440,900],""platform"":""MacIntel"",""timezone"":""Europe/Amsterdam""}","","","","1632923049208","52","","","society","null","false","","","0.35","1","3","0.2","filler","F","","","Society","0.8412838578224182","[object SpeechRecognitionResultList]"
"1093","","html-speech-API-response","159","549138","0.0-4.155-0.155","4","dutch","w00kfhnnf9mxtar","{""user_agent"":""Mozilla/5.0 (Macintosh; Intel Mac OS X 10_15_7) AppleWebKit/537.36 (KHTML, like Gecko) Chrome/94.0.4606.61 Safari/537.36"",""on_chrome"":true,""on_mobile"":false,""language"":""nl-NL"",""screen_resolution"":[1440,900],""platform"":""MacIntel"",""timezone"":""Europe/Amsterdam""}","","","","1632923052858","52","","","society","null","false","","","0.35","1","3","0.2","filler","F","","","Society","0.8412838578224182","[object SpeechRecognitionResultList]"
"1279","","html-speech-API-response","160","552687","0.0-4.156-0.156","4","dutch","w00kfhnnf9mxtar","{""user_agent"":""Mozilla/5.0 (Macintosh; Intel Mac OS X 10_15_7) AppleWebKit/537.36 (KHTML, like Gecko) Chrome/94.0.4606.61 Safari/537.36"",""on_chrome"":true,""on_mobile"":false,""language"":""nl-NL"",""screen_resolution"":[1440,900],""platform"":""MacIntel"",""timezone"":""Europe/Amsterdam""}","","","","1632923056467","53","","","leaf","null","true","","","0.35","1","3","0.2","filler","F","","","leaf","0.80641770362854","[object SpeechRecognitionResultList]"
"997","","html-speech-API-response","161","556004","0.0-4.157-0.157","4","dutch","w00kfhnnf9mxtar","{""user_agent"":""Mozilla/5.0 (Macintosh; Intel Mac OS X 10_15_7) AppleWebKit/537.36 (KHTML, like Gecko) Chrome/94.0.4606.61 Safari/537.36"",""on_chrome"":true,""on_mobile"":false,""language"":""nl-NL"",""screen_resolution"":[1440,900],""platform"":""MacIntel"",""timezone"":""Europe/Amsterdam""}","","","","1632923060015","53","","","leaf","null","false","","","0.35","1","3","0.2","filler","F","","","leaf","0.8077265620231628","[object SpeechRecognitionResultList]"
"1184","","html-speech-API-response","162","559589","0.0-4.158-0.158","4","dutch","w00kfhnnf9mxtar","{""user_agent"":""Mozilla/5.0 (Macintosh; Intel Mac OS X 10_15_7) AppleWebKit/537.36 (KHTML, like Gecko) Chrome/94.0.4606.61 Safari/537.36"",""on_chrome"":true,""on_mobile"":false,""language"":""nl-NL"",""screen_resolution"":[1440,900],""platform"":""MacIntel"",""timezone"":""Europe/Amsterdam""}","","","","1632923063333","53","","","leaf","null","false","","","0.35","1","3","0.2","filler","F","","","leaf","0.8072335720062256","[object SpeechRecognitionResultList]"
"1184","","html-speech-API-response","163","563387","0.0-4.159-0.159","4","dutch","w00kfhnnf9mxtar","{""user_agent"":""Mozilla/5.0 (Macintosh; Intel Mac OS X 10_15_7) AppleWebKit/537.36 (KHTML, like Gecko) Chrome/94.0.4606.61 Safari/537.36"",""on_chrome"":true,""on_mobile"":false,""language"":""nl-NL"",""screen_resolution"":[1440,900],""platform"":""MacIntel"",""timezone"":""Europe/Amsterdam""}","","","","1632923066918","54","","","frog","null","true","","","0.35","1","3","0.2","filler","F","","","frog","0.7425264716148376","[object SpeechRecognitionResultList]"
"1276","","html-speech-API-response","164","567090","0.0-4.160-0.160","4","dutch","w00kfhnnf9mxtar","{""user_agent"":""Mozilla/5.0 (Macintosh; Intel Mac OS X 10_15_7) AppleWebKit/537.36 (KHTML, like Gecko) Chrome/94.0.4606.61 Safari/537.36"",""on_chrome"":true,""on_mobile"":false,""language"":""nl-NL"",""screen_resolution"":[1440,900],""platform"":""MacIntel"",""timezone"":""Europe/Amsterdam""}","","","","1632923070714","54","","","frog","null","false","","","0.35","1","3","0.2","filler","F","","","frog","0.7424344420433044","[object SpeechRecognitionResultList]"
"1185","","html-speech-API-response","165","570787","0.0-4.161-0.161","4","dutch","w00kfhnnf9mxtar","{""user_agent"":""Mozilla/5.0 (Macintosh; Intel Mac OS X 10_15_7) AppleWebKit/537.36 (KHTML, like Gecko) Chrome/94.0.4606.61 Safari/537.36"",""on_chrome"":true,""on_mobile"":false,""language"":""nl-NL"",""screen_resolution"":[1440,900],""platform"":""MacIntel"",""timezone"":""Europe/Amsterdam""}","","","","1632923074419","54","","","frog","null","false","","","0.35","1","3","0.2","filler","F","","","frog","0.7425264120101929","[object SpeechRecognitionResultList]"
"1279","","html-speech-API-response","166","574566","0.0-4.162-0.162","4","dutch","w00kfhnnf9mxtar","{""user_agent"":""Mozilla/5.0 (Macintosh; Intel Mac OS X 10_15_7) AppleWebKit/537.36 (KHTML, like Gecko) Chrome/94.0.4606.61 Safari/537.36"",""on_chrome"":true,""on_mobile"":false,""language"":""nl-NL"",""screen_resolution"":[1440,900],""platform"":""MacIntel"",""timezone"":""Europe/Amsterdam""}","","","","1632923078116","55","","","almond","null","true","","","0.35","1","3","0.2","filler","F","","","almond","0.6292849183082581","[object SpeechRecognitionResultList]"
"1371","","html-speech-API-response","167","578312","0.0-4.163-0.163","4","dutch","w00kfhnnf9mxtar","{""user_agent"":""Mozilla/5.0 (Macintosh; Intel Mac OS X 10_15_7) AppleWebKit/537.36 (KHTML, like Gecko) Chrome/94.0.4606.61 Safari/537.36"",""on_chrome"":true,""on_mobile"":false,""language"":""nl-NL"",""screen_resolution"":[1440,900],""platform"":""MacIntel"",""timezone"":""Europe/Amsterdam""}","","","","1632923081894","55","","","almond","null","false","","","0.35","1","3","0.2","filler","F","","","almond","0.9546766877174377","[object SpeechRecognitionResultList]"
"1370","","html-speech-API-response","168","582153","0.0-4.164-0.164","4","dutch","w00kfhnnf9mxtar","{""user_agent"":""Mozilla/5.0 (Macintosh; Intel Mac OS X 10_15_7) AppleWebKit/537.36 (KHTML, like Gecko) Chrome/94.0.4606.61 Safari/537.36"",""on_chrome"":true,""on_mobile"":false,""language"":""nl-NL"",""screen_resolution"":[1440,900],""platform"":""MacIntel"",""timezone"":""Europe/Amsterdam""}","","","","1632923085641","55","","","almond","null","false","","","0.35","1","3","0.2","filler","F","","","almond","0.9546766877174377","[object SpeechRecognitionResultList]"
"1278","","html-speech-API-response","169","585660","0.0-4.165-0.165","4","dutch","w00kfhnnf9mxtar","{""user_agent"":""Mozilla/5.0 (Macintosh; Intel Mac OS X 10_15_7) AppleWebKit/537.36 (KHTML, like Gecko) Chrome/94.0.4606.61 Safari/537.36"",""on_chrome"":true,""on_mobile"":false,""language"":""nl-NL"",""screen_resolution"":[1440,900],""platform"":""MacIntel"",""timezone"":""Europe/Amsterdam""}","","","","1632923089482","56","","","yoke","null","true","","","0.35","1","3","0.2","filler","F","","","yoke","0.7374441623687744","[object SpeechRecognitionResultList]"
"1278","","html-speech-API-response","170","589315","0.0-4.166-0.166","4","dutch","w00kfhnnf9mxtar","{""user_agent"":""Mozilla/5.0 (Macintosh; Intel Mac OS X 10_15_7) AppleWebKit/537.36 (KHTML, like Gecko) Chrome/94.0.4606.61 Safari/537.36"",""on_chrome"":true,""on_mobile"":false,""language"":""nl-NL"",""screen_resolution"":[1440,900],""platform"":""MacIntel"",""timezone"":""Europe/Amsterdam""}","","","","1632923092990","56","","","yoke","null","false","","","0.35","1","3","0.2","filler","F","","","yoke","0.7295050024986267","[object SpeechRecognitionResultList]"
"1276","","html-speech-API-response","171","592942","0.0-4.167-0.167","4","dutch","w00kfhnnf9mxtar","{""user_agent"":""Mozilla/5.0 (Macintosh; Intel Mac OS X 10_15_7) AppleWebKit/537.36 (KHTML, like Gecko) Chrome/94.0.4606.61 Safari/537.36"",""on_chrome"":true,""on_mobile"":false,""language"":""nl-NL"",""screen_resolution"":[1440,900],""platform"":""MacIntel"",""timezone"":""Europe/Amsterdam""}","","","","1632923096643","56","","","yoke","null","false","","","0.35","1","3","0.2","filler","F","","","yoke","0.7407486438751221","[object SpeechRecognitionResultList]"
"1372","","html-speech-API-response","172","596643","0.0-4.168-0.168","4","dutch","w00kfhnnf9mxtar","{""user_agent"":""Mozilla/5.0 (Macintosh; Intel Mac OS X 10_15_7) AppleWebKit/537.36 (KHTML, like Gecko) Chrome/94.0.4606.61 Safari/537.36"",""on_chrome"":true,""on_mobile"":false,""language"":""nl-NL"",""screen_resolution"":[1440,900],""platform"":""MacIntel"",""timezone"":""Europe/Amsterdam""}","","","","1632923100271","57","","","agent","null","true","","","0.35","1","3","0.2","filler","F","","","agent","0.8362539410591125","[object SpeechRecognitionResultList]"
"1557","","html-speech-API-response","173","600420","0.0-4.169-0.169","4","dutch","w00kfhnnf9mxtar","{""user_agent"":""Mozilla/5.0 (Macintosh; Intel Mac OS X 10_15_7) AppleWebKit/537.36 (KHTML, like Gecko) Chrome/94.0.4606.61 Safari/537.36"",""on_chrome"":true,""on_mobile"":false,""language"":""nl-NL"",""screen_resolution"":[1440,900],""platform"":""MacIntel"",""timezone"":""Europe/Amsterdam""}","","","","1632923103971","57","","","agent","null","false","","","0.35","1","3","0.2","filler","F","","","agent","0.8362537026405334","[object SpeechRecognitionResultList]"
