"rt","responses","trial_type","trial_index","time_elapsed","internal_node_id","condition","language","subject","browser_info","participant_number","value","view_history","presentation_start_time","id","text","response","answer","correct","study","activation","alpha","mu","kappa","a","b","types","block","reading_time","estimated_rt","transcribed speech signal response","confidence","full results"
"694","{""Q0"":""""}","survey-text","0","697","0.0-0.0","6","dutch","m3zwlxsyg12ocuq","{""user_agent"":""Mozilla/5.0 (Macintosh; Intel Mac OS X 10_15_7) AppleWebKit/537.36 (KHTML, like Gecko) Chrome/94.0.4606.61 Safari/537.36"",""on_chrome"":true,""on_mobile"":false,""language"":""nl-NL"",""screen_resolution"":[1440,900],""platform"":""MacIntel"",""timezone"":""Europe/Amsterdam""}","","","","","","","","","","","","","","","","","","","","","","",""
"","","call-function","1","702","0.0-1.0","6","dutch","m3zwlxsyg12ocuq","{""user_agent"":""Mozilla/5.0 (Macintosh; Intel Mac OS X 10_15_7) AppleWebKit/537.36 (KHTML, like Gecko) Chrome/94.0.4606.61 Safari/537.36"",""on_chrome"":true,""on_mobile"":false,""language"":""nl-NL"",""screen_resolution"":[1440,900],""platform"":""MacIntel"",""timezone"":""Europe/Amsterdam""}","","","","","","","","","","","","","","","","","","","","","","",""
"248","","instructions","2","950","0.0-2.0","6","dutch","m3zwlxsyg12ocuq","{""user_agent"":""Mozilla/5.0 (Macintosh; Intel Mac OS X 10_15_7) AppleWebKit/537.36 (KHTML, like Gecko) Chrome/94.0.4606.61 Safari/537.36"",""on_chrome"":true,""on_mobile"":false,""language"":""nl-NL"",""screen_resolution"":[1440,900],""platform"":""MacIntel"",""timezone"":""Europe/Amsterdam""}","","","[{""page_index"":0,""viewing_time"":248}]","","","","","","","","","","","","","","","","","","","",""
"","","call-function","3","951","0.0-3.0","6","dutch","m3zwlxsyg12ocuq","{""user_agent"":""Mozilla/5.0 (Macintosh; Intel Mac OS X 10_15_7) AppleWebKit/537.36 (KHTML, like Gecko) Chrome/94.0.4606.61 Safari/537.36"",""on_chrome"":true,""on_mobile"":false,""language"":""nl-NL"",""screen_resolution"":[1440,900],""platform"":""MacIntel"",""timezone"":""Europe/Amsterdam""}","","","","","","","","","","","","","","","","","","","","","","",""
"909","","html-speech-API-response","4","5137","0.0-4.0-0.0","6","dutch","m3zwlxsyg12ocuq","{""user_agent"":""Mozilla/5.0 (Macintosh; Intel Mac OS X 10_15_7) AppleWebKit/537.36 (KHTML, like Gecko) Chrome/94.0.4606.61 Safari/537.36"",""on_chrome"":true,""on_mobile"":false,""language"":""nl-NL"",""screen_resolution"":[1440,900],""platform"":""MacIntel"",""timezone"":""Europe/Amsterdam""}","","","","1632921128969","1","","","dog","null","true","-Infinity","0.35","0.35","1","3","0.2","filler","F","300","Infinity","dog","0.8707721829414368","[object SpeechRecognitionResultList]"
"1003","","html-speech-API-response","5","8378","0.0-4.1-0.1","6","dutch","m3zwlxsyg12ocuq","{""user_agent"":""Mozilla/5.0 (Macintosh; Intel Mac OS X 10_15_7) AppleWebKit/537.36 (KHTML, like Gecko) Chrome/94.0.4606.61 Safari/537.36"",""on_chrome"":true,""on_mobile"":false,""language"":""nl-NL"",""screen_resolution"":[1440,900],""platform"":""MacIntel"",""timezone"":""Europe/Amsterdam""}","","","","1632921133156","1","","","dog","null","false","-1.0339450532946204","0.35","0.35","1","3","0.2","filler","F","300","3112.1380145083226","dog","0.8707731366157532","[object SpeechRecognitionResultList]"
"999","","html-speech-API-response","6","11628","0.0-4.2-0.2","6","dutch","m3zwlxsyg12ocuq","{""user_agent"":""Mozilla/5.0 (Macintosh; Intel Mac OS X 10_15_7) AppleWebKit/537.36 (KHTML, like Gecko) Chrome/94.0.4606.61 Safari/537.36"",""on_chrome"":true,""on_mobile"":false,""language"":""nl-NL"",""screen_resolution"":[1440,900],""platform"":""MacIntel"",""timezone"":""Europe/Amsterdam""}","","","","1632921136395","1","","","dog","null","false","-1.0339450532946204","0.35","0.35","1","3","0.2","filler","F","300","3112.1380145083226","dog","0.8707721829414368","[object SpeechRecognitionResultList]"
"1280","","html-speech-API-response","7","15316","0.0-4.3-0.3","6","dutch","m3zwlxsyg12ocuq","{""user_agent"":""Mozilla/5.0 (Macintosh; Intel Mac OS X 10_15_7) AppleWebKit/537.36 (KHTML, like Gecko) Chrome/94.0.4606.61 Safari/537.36"",""on_chrome"":true,""on_mobile"":false,""language"":""nl-NL"",""screen_resolution"":[1440,900],""platform"":""MacIntel"",""timezone"":""Europe/Amsterdam""}","","","","1632921139647","2","","","pearl","null","true","-Infinity","0.35","0.35","1","3","0.2","filler","F","300","Infinity","virile","0.6853776574134827","[object SpeechRecognitionResultList]"
"999","","html-speech-API-response","8","18580","0.0-4.4-0.4","6","dutch","m3zwlxsyg12ocuq","{""user_agent"":""Mozilla/5.0 (Macintosh; Intel Mac OS X 10_15_7) AppleWebKit/537.36 (KHTML, like Gecko) Chrome/94.0.4606.61 Safari/537.36"",""on_chrome"":true,""on_mobile"":false,""language"":""nl-NL"",""screen_resolution"":[1440,900],""platform"":""MacIntel"",""timezone"":""Europe/Amsterdam""}","","","","1632921143334","2","","","pearl","null","false","-1.0247023720281065","0.35","0.35","1","3","0.2","filler","F","300","3086.266066428019","virile","0.3010517358779907","[object SpeechRecognitionResultList]"
"907","","html-speech-API-response","9","21839","0.0-4.5-0.5","6","dutch","m3zwlxsyg12ocuq","{""user_agent"":""Mozilla/5.0 (Macintosh; Intel Mac OS X 10_15_7) AppleWebKit/537.36 (KHTML, like Gecko) Chrome/94.0.4606.61 Safari/537.36"",""on_chrome"":true,""on_mobile"":false,""language"":""nl-NL"",""screen_resolution"":[1440,900],""platform"":""MacIntel"",""timezone"":""Europe/Amsterdam""}","","","","1632921146598","2","","","pearl","null","false","-1.0247023720281065","0.35","0.35","1","3","0.2","filler","F","300","3086.266066428019","Daryl","0.21693678200244904","[object SpeechRecognitionResultList]"
"1093","","html-speech-API-response","10","25253","0.0-4.6-0.6","6","dutch","m3zwlxsyg12ocuq","{""user_agent"":""Mozilla/5.0 (Macintosh; Intel Mac OS X 10_15_7) AppleWebKit/537.36 (KHTML, like Gecko) Chrome/94.0.4606.61 Safari/537.36"",""on_chrome"":true,""on_mobile"":false,""language"":""nl-NL"",""screen_resolution"":[1440,900],""platform"":""MacIntel"",""timezone"":""Europe/Amsterdam""}","","","","1632921149857","3","","","cloud","null","true","-Infinity","0.35","0.35","1","3","0.2","filler","F","300","Infinity","cloud","0.8383671045303345","[object SpeechRecognitionResultList]"
"907","","html-speech-API-response","11","28453","0.0-4.7-0.7","6","dutch","m3zwlxsyg12ocuq","{""user_agent"":""Mozilla/5.0 (Macintosh; Intel Mac OS X 10_15_7) AppleWebKit/537.36 (KHTML, like Gecko) Chrome/94.0.4606.61 Safari/537.36"",""on_chrome"":true,""on_mobile"":false,""language"":""nl-NL"",""screen_resolution"":[1440,900],""platform"":""MacIntel"",""timezone"":""Europe/Amsterdam""}","","","","1632921153271","3","","","cloud","null","false","-Infinity","0.35","0.35","1","3","0.2","filler","F","300","Infinity","cloud","0.8383662104606628","[object SpeechRecognitionResultList]"
"907","","html-speech-API-response","12","31702","0.0-4.8-0.8","6","dutch","m3zwlxsyg12ocuq","{""user_agent"":""Mozilla/5.0 (Macintosh; Intel Mac OS X 10_15_7) AppleWebKit/537.36 (KHTML, like Gecko) Chrome/94.0.4606.61 Safari/537.36"",""on_chrome"":true,""on_mobile"":false,""language"":""nl-NL"",""screen_resolution"":[1440,900],""platform"":""MacIntel"",""timezone"":""Europe/Amsterdam""}","","","","1632921156471","3","","","cloud","null","false","-Infinity","0.35","0.35","1","3","0.2","filler","F","300","Infinity","cloud","0.8383651971817017","[object SpeechRecognitionResultList]"
"1099","","html-speech-API-response","13","35354","0.0-4.9-0.9","6","dutch","m3zwlxsyg12ocuq","{""user_agent"":""Mozilla/5.0 (Macintosh; Intel Mac OS X 10_15_7) AppleWebKit/537.36 (KHTML, like Gecko) Chrome/94.0.4606.61 Safari/537.36"",""on_chrome"":true,""on_mobile"":false,""language"":""nl-NL"",""screen_resolution"":[1440,900],""platform"":""MacIntel"",""timezone"":""Europe/Amsterdam""}","","","","1632921159720","4","","","economy","null","true","-Infinity","0.35","0.35","1","3","0.2","filler","F","300","Infinity","economy","0.9546766877174377","[object SpeechRecognitionResultList]"
"905","","html-speech-API-response","14","38602","0.0-4.10-0.10","6","dutch","m3zwlxsyg12ocuq","{""user_agent"":""Mozilla/5.0 (Macintosh; Intel Mac OS X 10_15_7) AppleWebKit/537.36 (KHTML, like Gecko) Chrome/94.0.4606.61 Safari/537.36"",""on_chrome"":true,""on_mobile"":false,""language"":""nl-NL"",""screen_resolution"":[1440,900],""platform"":""MacIntel"",""timezone"":""Europe/Amsterdam""}","","","","1632921163373","4","","","economy","null","false","-Infinity","0.35","0.35","1","3","0.2","filler","F","300","Infinity","economy","0.9546766877174377","[object SpeechRecognitionResultList]"
"907","","html-speech-API-response","15","41859","0.0-4.11-0.11","6","dutch","m3zwlxsyg12ocuq","{""user_agent"":""Mozilla/5.0 (Macintosh; Intel Mac OS X 10_15_7) AppleWebKit/537.36 (KHTML, like Gecko) Chrome/94.0.4606.61 Safari/537.36"",""on_chrome"":true,""on_mobile"":false,""language"":""nl-NL"",""screen_resolution"":[1440,900],""platform"":""MacIntel"",""timezone"":""Europe/Amsterdam""}","","","","1632921166620","4","","","economy","null","false","-Infinity","0.35","0.35","1","3","0.2","filler","F","300","Infinity","economy","0.9546766877174377","[object SpeechRecognitionResultList]"
"1000","","html-speech-API-response","16","45335","0.0-4.12-0.12","6","dutch","m3zwlxsyg12ocuq","{""user_agent"":""Mozilla/5.0 (Macintosh; Intel Mac OS X 10_15_7) AppleWebKit/537.36 (KHTML, like Gecko) Chrome/94.0.4606.61 Safari/537.36"",""on_chrome"":true,""on_mobile"":false,""language"":""nl-NL"",""screen_resolution"":[1440,900],""platform"":""MacIntel"",""timezone"":""Europe/Amsterdam""}","","","","1632921169878","5","","","knee","null","true","","","0.35","1","3","0.2","filler","F","","","knee","0.36188799142837524","[object SpeechRecognitionResultList]"
"815","","html-speech-API-response","17","48677","0.0-4.13-0.13","6","dutch","m3zwlxsyg12ocuq","{""user_agent"":""Mozilla/5.0 (Macintosh; Intel Mac OS X 10_15_7) AppleWebKit/537.36 (KHTML, like Gecko) Chrome/94.0.4606.61 Safari/537.36"",""on_chrome"":true,""on_mobile"":false,""language"":""nl-NL"",""screen_resolution"":[1440,900],""platform"":""MacIntel"",""timezone"":""Europe/Amsterdam""}","","","","1632921173353","5","","","knee","null","false","","","0.35","1","3","0.2","filler","F","","","knee","0.37754860520362854","[object SpeechRecognitionResultList]"
"812","","html-speech-API-response","18","51896","0.0-4.14-0.14","6","dutch","m3zwlxsyg12ocuq","{""user_agent"":""Mozilla/5.0 (Macintosh; Intel Mac OS X 10_15_7) AppleWebKit/537.36 (KHTML, like Gecko) Chrome/94.0.4606.61 Safari/537.36"",""on_chrome"":true,""on_mobile"":false,""language"":""nl-NL"",""screen_resolution"":[1440,900],""platform"":""MacIntel"",""timezone"":""Europe/Amsterdam""}","","","","1632921176695","5","","","knee","null","false","","","0.35","1","3","0.2","filler","F","","","knee","0.3674244284629822","[object SpeechRecognitionResultList]"
"1093","","html-speech-API-response","19","55331","0.0-4.15-0.15","6","dutch","m3zwlxsyg12ocuq","{""user_agent"":""Mozilla/5.0 (Macintosh; Intel Mac OS X 10_15_7) AppleWebKit/537.36 (KHTML, like Gecko) Chrome/94.0.4606.61 Safari/537.36"",""on_chrome"":true,""on_mobile"":false,""language"":""nl-NL"",""screen_resolution"":[1440,900],""platform"":""MacIntel"",""timezone"":""Europe/Amsterdam""}","","","","1632921179915","6","","","egg","null","true","","","0.35","1","3","0.2","filler","F","","","egg","0.8891787528991699","[object SpeechRecognitionResultList]"
"816","","html-speech-API-response","20","58501","0.0-4.16-0.16","6","dutch","m3zwlxsyg12ocuq","{""user_agent"":""Mozilla/5.0 (Macintosh; Intel Mac OS X 10_15_7) AppleWebKit/537.36 (KHTML, like Gecko) Chrome/94.0.4606.61 Safari/537.36"",""on_chrome"":true,""on_mobile"":false,""language"":""nl-NL"",""screen_resolution"":[1440,900],""platform"":""MacIntel"",""timezone"":""Europe/Amsterdam""}","","","","1632921183350","6","","","egg","null","false","","","0.35","1","3","0.2","filler","F","","","egg","0.8891780376434326","[object SpeechRecognitionResultList]"
"815","","html-speech-API-response","21","61624","0.0-4.17-0.17","6","dutch","m3zwlxsyg12ocuq","{""user_agent"":""Mozilla/5.0 (Macintosh; Intel Mac OS X 10_15_7) AppleWebKit/537.36 (KHTML, like Gecko) Chrome/94.0.4606.61 Safari/537.36"",""on_chrome"":true,""on_mobile"":false,""language"":""nl-NL"",""screen_resolution"":[1440,900],""platform"":""MacIntel"",""timezone"":""Europe/Amsterdam""}","","","","1632921186521","6","","","egg","null","false","","","0.35","1","3","0.2","filler","F","","","egg","0.889178454875946","[object SpeechRecognitionResultList]"
"1092","","html-speech-API-response","22","65182","0.0-4.18-0.18","6","dutch","m3zwlxsyg12ocuq","{""user_agent"":""Mozilla/5.0 (Macintosh; Intel Mac OS X 10_15_7) AppleWebKit/537.36 (KHTML, like Gecko) Chrome/94.0.4606.61 Safari/537.36"",""on_chrome"":true,""on_mobile"":false,""language"":""nl-NL"",""screen_resolution"":[1440,900],""platform"":""MacIntel"",""timezone"":""Europe/Amsterdam""}","","","","1632921189643","7","","","beer","null","true","","","0.35","1","3","0.2","filler","F","","","beer","0.840387761592865","[object SpeechRecognitionResultList]"
"815","","html-speech-API-response","23","68318","0.0-4.19-0.19","6","dutch","m3zwlxsyg12ocuq","{""user_agent"":""Mozilla/5.0 (Macintosh; Intel Mac OS X 10_15_7) AppleWebKit/537.36 (KHTML, like Gecko) Chrome/94.0.4606.61 Safari/537.36"",""on_chrome"":true,""on_mobile"":false,""language"":""nl-NL"",""screen_resolution"":[1440,900],""platform"":""MacIntel"",""timezone"":""Europe/Amsterdam""}","","","","1632921193200","7","","","beer","null","false","","","0.35","1","3","0.2","filler","F","","","beer","0.8307878971099854","[object SpeechRecognitionResultList]"
"813","","html-speech-API-response","24","71496","0.0-4.20-0.20","6","dutch","m3zwlxsyg12ocuq","{""user_agent"":""Mozilla/5.0 (Macintosh; Intel Mac OS X 10_15_7) AppleWebKit/537.36 (KHTML, like Gecko) Chrome/94.0.4606.61 Safari/537.36"",""on_chrome"":true,""on_mobile"":false,""language"":""nl-NL"",""screen_resolution"":[1440,900],""platform"":""MacIntel"",""timezone"":""Europe/Amsterdam""}","","","","1632921196336","7","","","beer","null","false","","","0.35","1","3","0.2","filler","F","","","dear","0.23653919994831085","[object SpeechRecognitionResultList]"
"913","","html-speech-API-response","25","74934","0.0-4.21-0.21","6","dutch","m3zwlxsyg12ocuq","{""user_agent"":""Mozilla/5.0 (Macintosh; Intel Mac OS X 10_15_7) AppleWebKit/537.36 (KHTML, like Gecko) Chrome/94.0.4606.61 Safari/537.36"",""on_chrome"":true,""on_mobile"":false,""language"":""nl-NL"",""screen_resolution"":[1440,900],""platform"":""MacIntel"",""timezone"":""Europe/Amsterdam""}","","","","1632921199515","8","","","mattress","null","true","","","0.35","1","3","0.2","filler","F","","","mattress","0.9546766877174377","[object SpeechRecognitionResultList]"
"813","","html-speech-API-response","26","78221","0.0-4.22-0.22","6","dutch","m3zwlxsyg12ocuq","{""user_agent"":""Mozilla/5.0 (Macintosh; Intel Mac OS X 10_15_7) AppleWebKit/537.36 (KHTML, like Gecko) Chrome/94.0.4606.61 Safari/537.36"",""on_chrome"":true,""on_mobile"":false,""language"":""nl-NL"",""screen_resolution"":[1440,900],""platform"":""MacIntel"",""timezone"":""Europe/Amsterdam""}","","","","1632921202952","8","","","mattress","null","false","","","0.35","1","3","0.2","filler","F","","","mattress","0.9546766877174377","[object SpeechRecognitionResultList]"
"813","","html-speech-API-response","27","81329","0.0-4.23-0.23","6","dutch","m3zwlxsyg12ocuq","{""user_agent"":""Mozilla/5.0 (Macintosh; Intel Mac OS X 10_15_7) AppleWebKit/537.36 (KHTML, like Gecko) Chrome/94.0.4606.61 Safari/537.36"",""on_chrome"":true,""on_mobile"":false,""language"":""nl-NL"",""screen_resolution"":[1440,900],""platform"":""MacIntel"",""timezone"":""Europe/Amsterdam""}","","","","1632921206239","8","","","mattress","null","false","","","0.35","1","3","0.2","filler","F","","","mattress","0.9546766877174377","[object SpeechRecognitionResultList]"
"1092","","html-speech-API-response","28","84758","0.0-4.24-0.24","6","dutch","m3zwlxsyg12ocuq","{""user_agent"":""Mozilla/5.0 (Macintosh; Intel Mac OS X 10_15_7) AppleWebKit/537.36 (KHTML, like Gecko) Chrome/94.0.4606.61 Safari/537.36"",""on_chrome"":true,""on_mobile"":false,""language"":""nl-NL"",""screen_resolution"":[1440,900],""platform"":""MacIntel"",""timezone"":""Europe/Amsterdam""}","","","","1632921209348","9","","","broom","null","true","","","0.35","1","3","0.2","filler","F","","","room","0.8298710584640503","[object SpeechRecognitionResultList]"
"812","","html-speech-API-response","29","87985","0.0-4.25-0.25","6","dutch","m3zwlxsyg12ocuq","{""user_agent"":""Mozilla/5.0 (Macintosh; Intel Mac OS X 10_15_7) AppleWebKit/537.36 (KHTML, like Gecko) Chrome/94.0.4606.61 Safari/537.36"",""on_chrome"":true,""on_mobile"":false,""language"":""nl-NL"",""screen_resolution"":[1440,900],""platform"":""MacIntel"",""timezone"":""Europe/Amsterdam""}","","","","1632921212777","9","","","broom","null","false","","","0.35","1","3","0.2","filler","F","","","broom","0.8006328344345093","[object SpeechRecognitionResultList]"
"814","","html-speech-API-response","30","91228","0.0-4.26-0.26","6","dutch","m3zwlxsyg12ocuq","{""user_agent"":""Mozilla/5.0 (Macintosh; Intel Mac OS X 10_15_7) AppleWebKit/537.36 (KHTML, like Gecko) Chrome/94.0.4606.61 Safari/537.36"",""on_chrome"":true,""on_mobile"":false,""language"":""nl-NL"",""screen_resolution"":[1440,900],""platform"":""MacIntel"",""timezone"":""Europe/Amsterdam""}","","","","1632921216003","9","","","broom","null","false","","","0.35","1","3","0.2","filler","F","","","broom","0.919824481010437","[object SpeechRecognitionResultList]"
"1093","","html-speech-API-response","31","94765","0.0-4.27-0.27","6","dutch","m3zwlxsyg12ocuq","{""user_agent"":""Mozilla/5.0 (Macintosh; Intel Mac OS X 10_15_7) AppleWebKit/537.36 (KHTML, like Gecko) Chrome/94.0.4606.61 Safari/537.36"",""on_chrome"":true,""on_mobile"":false,""language"":""nl-NL"",""screen_resolution"":[1440,900],""platform"":""MacIntel"",""timezone"":""Europe/Amsterdam""}","","","","1632921219247","10","","","doctor","null","true","","","0.35","1","3","0.2","filler","F","","","doctor","0.778660237789154","[object SpeechRecognitionResultList]"
"815","","html-speech-API-response","32","97978","0.0-4.28-0.28","6","dutch","m3zwlxsyg12ocuq","{""user_agent"":""Mozilla/5.0 (Macintosh; Intel Mac OS X 10_15_7) AppleWebKit/537.36 (KHTML, like Gecko) Chrome/94.0.4606.61 Safari/537.36"",""on_chrome"":true,""on_mobile"":false,""language"":""nl-NL"",""screen_resolution"":[1440,900],""platform"":""MacIntel"",""timezone"":""Europe/Amsterdam""}","","","","1632921222784","10","","","doctor","null","false","","","0.35","1","3","0.2","filler","F","","","doctor","0.7553441524505615","[object SpeechRecognitionResultList]"
"813","","html-speech-API-response","33","101296","0.0-4.29-0.29","6","dutch","m3zwlxsyg12ocuq","{""user_agent"":""Mozilla/5.0 (Macintosh; Intel Mac OS X 10_15_7) AppleWebKit/537.36 (KHTML, like Gecko) Chrome/94.0.4606.61 Safari/537.36"",""on_chrome"":true,""on_mobile"":false,""language"":""nl-NL"",""screen_resolution"":[1440,900],""platform"":""MacIntel"",""timezone"":""Europe/Amsterdam""}","","","","1632921225999","10","","","doctor","null","false","","","0.35","1","3","0.2","filler","F","","","doctor","0.7785966992378235","[object SpeechRecognitionResultList]"
"1098","","html-speech-API-response","34","104717","0.0-4.30-0.30","6","dutch","m3zwlxsyg12ocuq","{""user_agent"":""Mozilla/5.0 (Macintosh; Intel Mac OS X 10_15_7) AppleWebKit/537.36 (KHTML, like Gecko) Chrome/94.0.4606.61 Safari/537.36"",""on_chrome"":true,""on_mobile"":false,""language"":""nl-NL"",""screen_resolution"":[1440,900],""platform"":""MacIntel"",""timezone"":""Europe/Amsterdam""}","","","","1632921229314","11","","","maggot","null","true","","","0.35","1","3","0.2","filler","F","","","Meggitt","0.9546766877174377","[object SpeechRecognitionResultList]"
"815","","html-speech-API-response","35","107950","0.0-4.31-0.31","6","dutch","m3zwlxsyg12ocuq","{""user_agent"":""Mozilla/5.0 (Macintosh; Intel Mac OS X 10_15_7) AppleWebKit/537.36 (KHTML, like Gecko) Chrome/94.0.4606.61 Safari/537.36"",""on_chrome"":true,""on_mobile"":false,""language"":""nl-NL"",""screen_resolution"":[1440,900],""platform"":""MacIntel"",""timezone"":""Europe/Amsterdam""}","","","","1632921232734","11","","","maggot","null","false","","","0.35","1","3","0.2","filler","F","","","Meggitt","0.9546766877174377","[object SpeechRecognitionResultList]"
"813","","html-speech-API-response","36","111112","0.0-4.32-0.32","6","dutch","m3zwlxsyg12ocuq","{""user_agent"":""Mozilla/5.0 (Macintosh; Intel Mac OS X 10_15_7) AppleWebKit/537.36 (KHTML, like Gecko) Chrome/94.0.4606.61 Safari/537.36"",""on_chrome"":true,""on_mobile"":false,""language"":""nl-NL"",""screen_resolution"":[1440,900],""platform"":""MacIntel"",""timezone"":""Europe/Amsterdam""}","","","","1632921235968","11","","","maggot","null","false","","","0.35","1","3","0.2","filler","F","","","maggots","0.9546766877174377","[object SpeechRecognitionResultList]"
"1002","","html-speech-API-response","37","114345","0.0-4.33-0.33","6","dutch","m3zwlxsyg12ocuq","{""user_agent"":""Mozilla/5.0 (Macintosh; Intel Mac OS X 10_15_7) AppleWebKit/537.36 (KHTML, like Gecko) Chrome/94.0.4606.61 Safari/537.36"",""on_chrome"":true,""on_mobile"":false,""language"":""nl-NL"",""screen_resolution"":[1440,900],""platform"":""MacIntel"",""timezone"":""Europe/Amsterdam""}","","","","1632921239131","12","","","bucket","null","true","","","0.35","1","3","0.2","filler","F","","","bucket","0.5087003707885742","[object SpeechRecognitionResultList]"
"815","","html-speech-API-response","38","117533","0.0-4.34-0.34","6","dutch","m3zwlxsyg12ocuq","{""user_agent"":""Mozilla/5.0 (Macintosh; Intel Mac OS X 10_15_7) AppleWebKit/537.36 (KHTML, like Gecko) Chrome/94.0.4606.61 Safari/537.36"",""on_chrome"":true,""on_mobile"":false,""language"":""nl-NL"",""screen_resolution"":[1440,900],""platform"":""MacIntel"",""timezone"":""Europe/Amsterdam""}","","","","1632921242362","12","","","bucket","null","false","","","0.35","1","3","0.2","filler","F","","","bakkt","0.857956051826477","[object SpeechRecognitionResultList]"
"1977","","html-speech-API-response","39","120520","0.0-4.35-0.35","6","dutch","m3zwlxsyg12ocuq","{""user_agent"":""Mozilla/5.0 (Macintosh; Intel Mac OS X 10_15_7) AppleWebKit/537.36 (KHTML, like Gecko) Chrome/94.0.4606.61 Safari/537.36"",""on_chrome"":true,""on_mobile"":false,""language"":""nl-NL"",""screen_resolution"":[1440,900],""platform"":""MacIntel"",""timezone"":""Europe/Amsterdam""}","","","","1632921245551","12","","","bucket","null","false","","","0.35","1","3","0.2","filler","F","","","bakkt","0.8139621615409851","[object SpeechRecognitionResultList]"
"1093","","html-speech-API-response","40","124149","0.0-4.36-0.36","6","dutch","m3zwlxsyg12ocuq","{""user_agent"":""Mozilla/5.0 (Macintosh; Intel Mac OS X 10_15_7) AppleWebKit/537.36 (KHTML, like Gecko) Chrome/94.0.4606.61 Safari/537.36"",""on_chrome"":true,""on_mobile"":false,""language"":""nl-NL"",""screen_resolution"":[1440,900],""platform"":""MacIntel"",""timezone"":""Europe/Amsterdam""}","","","","1632921248537","13","","","tomato","null","true","","","0.35","1","3","0.2","filler","F","","","tomato","0.9546766877174377","[object SpeechRecognitionResultList]"
"811","","html-speech-API-response","41","127456","0.0-4.37-0.37","6","dutch","m3zwlxsyg12ocuq","{""user_agent"":""Mozilla/5.0 (Macintosh; Intel Mac OS X 10_15_7) AppleWebKit/537.36 (KHTML, like Gecko) Chrome/94.0.4606.61 Safari/537.36"",""on_chrome"":true,""on_mobile"":false,""language"":""nl-NL"",""screen_resolution"":[1440,900],""platform"":""MacIntel"",""timezone"":""Europe/Amsterdam""}","","","","1632921252169","13","","","tomato","null","false","","","0.35","1","3","0.2","filler","F","","","tomato","0.9546766877174377","[object SpeechRecognitionResultList]"
"813","","html-speech-API-response","42","130699","0.0-4.38-0.38","6","dutch","m3zwlxsyg12ocuq","{""user_agent"":""Mozilla/5.0 (Macintosh; Intel Mac OS X 10_15_7) AppleWebKit/537.36 (KHTML, like Gecko) Chrome/94.0.4606.61 Safari/537.36"",""on_chrome"":true,""on_mobile"":false,""language"":""nl-NL"",""screen_resolution"":[1440,900],""platform"":""MacIntel"",""timezone"":""Europe/Amsterdam""}","","","","1632921255475","13","","","tomato","null","false","","","0.35","1","3","0.2","filler","F","","","tomato","0.9546766877174377","[object SpeechRecognitionResultList]"
"1279","","html-speech-API-response","43","134386","0.0-4.39-0.39","6","dutch","m3zwlxsyg12ocuq","{""user_agent"":""Mozilla/5.0 (Macintosh; Intel Mac OS X 10_15_7) AppleWebKit/537.36 (KHTML, like Gecko) Chrome/94.0.4606.61 Safari/537.36"",""on_chrome"":true,""on_mobile"":false,""language"":""nl-NL"",""screen_resolution"":[1440,900],""platform"":""MacIntel"",""timezone"":""Europe/Amsterdam""}","","","","1632921258718","14","","","poison","null","true","","","0.35","1","3","0.2","filler","F","","","poison","0.8117748498916626","[object SpeechRecognitionResultList]"
"906","","html-speech-API-response","44","137747","0.0-4.40-0.40","6","dutch","m3zwlxsyg12ocuq","{""user_agent"":""Mozilla/5.0 (Macintosh; Intel Mac OS X 10_15_7) AppleWebKit/537.36 (KHTML, like Gecko) Chrome/94.0.4606.61 Safari/537.36"",""on_chrome"":true,""on_mobile"":false,""language"":""nl-NL"",""screen_resolution"":[1440,900],""platform"":""MacIntel"",""timezone"":""Europe/Amsterdam""}","","","","1632921262404","14","","","poison","null","false","","","0.35","1","3","0.2","filler","F","","","poison","0.8117343187332153","[object SpeechRecognitionResultList]"
"1000","","html-speech-API-response","45","141205","0.0-4.41-0.41","6","dutch","m3zwlxsyg12ocuq","{""user_agent"":""Mozilla/5.0 (Macintosh; Intel Mac OS X 10_15_7) AppleWebKit/537.36 (KHTML, like Gecko) Chrome/94.0.4606.61 Safari/537.36"",""on_chrome"":true,""on_mobile"":false,""language"":""nl-NL"",""screen_resolution"":[1440,900],""platform"":""MacIntel"",""timezone"":""Europe/Amsterdam""}","","","","1632921265767","14","","","poison","null","false","","","0.35","1","3","0.2","filler","F","","","poison","0.7930434346199036","[object SpeechRecognitionResultList]"
"1093","","html-speech-API-response","46","144741","0.0-4.42-0.42","6","dutch","m3zwlxsyg12ocuq","{""user_agent"":""Mozilla/5.0 (Macintosh; Intel Mac OS X 10_15_7) AppleWebKit/537.36 (KHTML, like Gecko) Chrome/94.0.4606.61 Safari/537.36"",""on_chrome"":true,""on_mobile"":false,""language"":""nl-NL"",""screen_resolution"":[1440,900],""platform"":""MacIntel"",""timezone"":""Europe/Amsterdam""}","","","","1632921269224","15","","","soul","null","true","","","0.35","1","3","0.2","filler","F","","","so","0.8316720724105835","[object SpeechRecognitionResultList]"
"814","","html-speech-API-response","47","148063","0.0-4.43-0.43","6","dutch","m3zwlxsyg12ocuq","{""user_agent"":""Mozilla/5.0 (Macintosh; Intel Mac OS X 10_15_7) AppleWebKit/537.36 (KHTML, like Gecko) Chrome/94.0.4606.61 Safari/537.36"",""on_chrome"":true,""on_mobile"":false,""language"":""nl-NL"",""screen_resolution"":[1440,900],""platform"":""MacIntel"",""timezone"":""Europe/Amsterdam""}","","","","1632921272759","15","","","soul","null","false","","","0.35","1","3","0.2","filler","F","","","so","0.8283340334892273","[object SpeechRecognitionResultList]"
"817","","html-speech-API-response","48","151274","0.0-4.44-0.44","6","dutch","m3zwlxsyg12ocuq","{""user_agent"":""Mozilla/5.0 (Macintosh; Intel Mac OS X 10_15_7) AppleWebKit/537.36 (KHTML, like Gecko) Chrome/94.0.4606.61 Safari/537.36"",""on_chrome"":true,""on_mobile"":false,""language"":""nl-NL"",""screen_resolution"":[1440,900],""platform"":""MacIntel"",""timezone"":""Europe/Amsterdam""}","","","","1632921276083","15","","","soul","null","false","","","0.35","1","3","0.2","filler","F","","","so","0.8296567797660828","[object SpeechRecognitionResultList]"
"1002","","html-speech-API-response","49","154609","0.0-4.45-0.45","6","dutch","m3zwlxsyg12ocuq","{""user_agent"":""Mozilla/5.0 (Macintosh; Intel Mac OS X 10_15_7) AppleWebKit/537.36 (KHTML, like Gecko) Chrome/94.0.4606.61 Safari/537.36"",""on_chrome"":true,""on_mobile"":false,""language"":""nl-NL"",""screen_resolution"":[1440,900],""platform"":""MacIntel"",""timezone"":""Europe/Amsterdam""}","","","","1632921279294","16","","","food","null","true","","","0.35","1","3","0.2","filler","F","","","food","0.8933563232421875","[object SpeechRecognitionResultList]"
"815","","html-speech-API-response","50","157790","0.0-4.46-0.46","6","dutch","m3zwlxsyg12ocuq","{""user_agent"":""Mozilla/5.0 (Macintosh; Intel Mac OS X 10_15_7) AppleWebKit/537.36 (KHTML, like Gecko) Chrome/94.0.4606.61 Safari/537.36"",""on_chrome"":true,""on_mobile"":false,""language"":""nl-NL"",""screen_resolution"":[1440,900],""platform"":""MacIntel"",""timezone"":""Europe/Amsterdam""}","","","","1632921282627","16","","","food","null","false","","","0.35","1","3","0.2","filler","F","","","food","0.8933560848236084","[object SpeechRecognitionResultList]"
"999","","html-speech-API-response","51","161035","0.0-4.47-0.47","6","dutch","m3zwlxsyg12ocuq","{""user_agent"":""Mozilla/5.0 (Macintosh; Intel Mac OS X 10_15_7) AppleWebKit/537.36 (KHTML, like Gecko) Chrome/94.0.4606.61 Safari/537.36"",""on_chrome"":true,""on_mobile"":false,""language"":""nl-NL"",""screen_resolution"":[1440,900],""platform"":""MacIntel"",""timezone"":""Europe/Amsterdam""}","","","","1632921285808","16","","","food","null","false","","","0.35","1","3","0.2","filler","F","","","food","0.8933555483818054","[object SpeechRecognitionResultList]"
"1001","","html-speech-API-response","52","164428","0.0-4.48-0.48","6","dutch","m3zwlxsyg12ocuq","{""user_agent"":""Mozilla/5.0 (Macintosh; Intel Mac OS X 10_15_7) AppleWebKit/537.36 (KHTML, like Gecko) Chrome/94.0.4606.61 Safari/537.36"",""on_chrome"":true,""on_mobile"":false,""language"":""nl-NL"",""screen_resolution"":[1440,900],""platform"":""MacIntel"",""timezone"":""Europe/Amsterdam""}","","","","1632921289054","17","","","crab","null","true","","","0.35","1","3","0.2","filler","F","","","crab","0.8732948899269104","[object SpeechRecognitionResultList]"
"816","","html-speech-API-response","53","167608","0.0-4.49-0.49","6","dutch","m3zwlxsyg12ocuq","{""user_agent"":""Mozilla/5.0 (Macintosh; Intel Mac OS X 10_15_7) AppleWebKit/537.36 (KHTML, like Gecko) Chrome/94.0.4606.61 Safari/537.36"",""on_chrome"":true,""on_mobile"":false,""language"":""nl-NL"",""screen_resolution"":[1440,900],""platform"":""MacIntel"",""timezone"":""Europe/Amsterdam""}","","","","1632921292446","17","","","crab","null","false","","","0.35","1","3","0.2","filler","F","","","cred","0.9546766877174377","[object SpeechRecognitionResultList]"
"810","","html-speech-API-response","54","170815","0.0-4.50-0.50","6","dutch","m3zwlxsyg12ocuq","{""user_agent"":""Mozilla/5.0 (Macintosh; Intel Mac OS X 10_15_7) AppleWebKit/537.36 (KHTML, like Gecko) Chrome/94.0.4606.61 Safari/537.36"",""on_chrome"":true,""on_mobile"":false,""language"":""nl-NL"",""screen_resolution"":[1440,900],""platform"":""MacIntel"",""timezone"":""Europe/Amsterdam""}","","","","1632921295626","17","","","crab","null","false","","","0.35","1","3","0.2","filler","F","","","dread","0.21740151941776276","[object SpeechRecognitionResultList]"
"1185","","html-speech-API-response","55","174437","0.0-4.51-0.51","6","dutch","m3zwlxsyg12ocuq","{""user_agent"":""Mozilla/5.0 (Macintosh; Intel Mac OS X 10_15_7) AppleWebKit/537.36 (KHTML, like Gecko) Chrome/94.0.4606.61 Safari/537.36"",""on_chrome"":true,""on_mobile"":false,""language"":""nl-NL"",""screen_resolution"":[1440,900],""platform"":""MacIntel"",""timezone"":""Europe/Amsterdam""}","","","","1632921298834","18","","","corpse","null","true","","","0.35","1","3","0.2","filler","F","","","corpse","0.9546766877174377","[object SpeechRecognitionResultList]"
"811","","html-speech-API-response","56","177601","0.0-4.52-0.52","6","dutch","m3zwlxsyg12ocuq","{""user_agent"":""Mozilla/5.0 (Macintosh; Intel Mac OS X 10_15_7) AppleWebKit/537.36 (KHTML, like Gecko) Chrome/94.0.4606.61 Safari/537.36"",""on_chrome"":true,""on_mobile"":false,""language"":""nl-NL"",""screen_resolution"":[1440,900],""platform"":""MacIntel"",""timezone"":""Europe/Amsterdam""}","","","","1632921302456","18","","","corpse","null","false","","","0.35","1","3","0.2","filler","F","","","chords","0.784347653388977","[object SpeechRecognitionResultList]"
"995","","html-speech-API-response","57","180935","0.0-4.53-0.53","6","dutch","m3zwlxsyg12ocuq","{""user_agent"":""Mozilla/5.0 (Macintosh; Intel Mac OS X 10_15_7) AppleWebKit/537.36 (KHTML, like Gecko) Chrome/94.0.4606.61 Safari/537.36"",""on_chrome"":true,""on_mobile"":false,""language"":""nl-NL"",""screen_resolution"":[1440,900],""platform"":""MacIntel"",""timezone"":""Europe/Amsterdam""}","","","","1632921305622","18","","","corpse","null","false","","","0.35","1","3","0.2","filler","F","","","corpse","0.9546766877174377","[object SpeechRecognitionResultList]"
"909","","html-speech-API-response","58","184208","0.0-4.54-0.54","6","dutch","m3zwlxsyg12ocuq","{""user_agent"":""Mozilla/5.0 (Macintosh; Intel Mac OS X 10_15_7) AppleWebKit/537.36 (KHTML, like Gecko) Chrome/94.0.4606.61 Safari/537.36"",""on_chrome"":true,""on_mobile"":false,""language"":""nl-NL"",""screen_resolution"":[1440,900],""platform"":""MacIntel"",""timezone"":""Europe/Amsterdam""}","","","","1632921308952","19","","","horse","null","true","","","0.35","1","3","0.2","filler","F","","","flourish","0.5635319948196411","[object SpeechRecognitionResultList]"
"813","","html-speech-API-response","59","187468","0.0-4.55-0.55","6","dutch","m3zwlxsyg12ocuq","{""user_agent"":""Mozilla/5.0 (Macintosh; Intel Mac OS X 10_15_7) AppleWebKit/537.36 (KHTML, like Gecko) Chrome/94.0.4606.61 Safari/537.36"",""on_chrome"":true,""on_mobile"":false,""language"":""nl-NL"",""screen_resolution"":[1440,900],""platform"":""MacIntel"",""timezone"":""Europe/Amsterdam""}","","","","1632921312226","19","","","horse","null","false","","","0.35","1","3","0.2","filler","F","","","horse","0.8657902479171753","[object SpeechRecognitionResultList]"
"813","","html-speech-API-response","60","190627","0.0-4.56-0.56","6","dutch","m3zwlxsyg12ocuq","{""user_agent"":""Mozilla/5.0 (Macintosh; Intel Mac OS X 10_15_7) AppleWebKit/537.36 (KHTML, like Gecko) Chrome/94.0.4606.61 Safari/537.36"",""on_chrome"":true,""on_mobile"":false,""language"":""nl-NL"",""screen_resolution"":[1440,900],""platform"":""MacIntel"",""timezone"":""Europe/Amsterdam""}","","","","1632921315486","19","","","horse","null","false","","","0.35","1","3","0.2","filler","F","","","horse","0.8642977476119995","[object SpeechRecognitionResultList]"
"1099","","html-speech-API-response","61","194151","0.0-4.57-0.57","6","dutch","m3zwlxsyg12ocuq","{""user_agent"":""Mozilla/5.0 (Macintosh; Intel Mac OS X 10_15_7) AppleWebKit/537.36 (KHTML, like Gecko) Chrome/94.0.4606.61 Safari/537.36"",""on_chrome"":true,""on_mobile"":false,""language"":""nl-NL"",""screen_resolution"":[1440,900],""platform"":""MacIntel"",""timezone"":""Europe/Amsterdam""}","","","","1632921318645","20","","","scarf","null","true","","","0.35","1","3","0.2","filler","F","","","scarf","0.9546766877174377","[object SpeechRecognitionResultList]"
"813","","html-speech-API-response","62","197427","0.0-4.58-0.58","6","dutch","m3zwlxsyg12ocuq","{""user_agent"":""Mozilla/5.0 (Macintosh; Intel Mac OS X 10_15_7) AppleWebKit/537.36 (KHTML, like Gecko) Chrome/94.0.4606.61 Safari/537.36"",""on_chrome"":true,""on_mobile"":false,""language"":""nl-NL"",""screen_resolution"":[1440,900],""platform"":""MacIntel"",""timezone"":""Europe/Amsterdam""}","","","","1632921322169","20","","","scarf","null","false","","","0.35","1","3","0.2","filler","F","","","scarf","0.9546766877174377","[object SpeechRecognitionResultList]"
"815","","html-speech-API-response","63","200703","0.0-4.59-0.59","6","dutch","m3zwlxsyg12ocuq","{""user_agent"":""Mozilla/5.0 (Macintosh; Intel Mac OS X 10_15_7) AppleWebKit/537.36 (KHTML, like Gecko) Chrome/94.0.4606.61 Safari/537.36"",""on_chrome"":true,""on_mobile"":false,""language"":""nl-NL"",""screen_resolution"":[1440,900],""platform"":""MacIntel"",""timezone"":""Europe/Amsterdam""}","","","","1632921325446","20","","","scarf","null","false","","","0.35","1","3","0.2","filler","F","","","scarf","0.9546766877174377","[object SpeechRecognitionResultList]"
"1094","","html-speech-API-response","64","204098","0.0-4.60-0.60","6","dutch","m3zwlxsyg12ocuq","{""user_agent"":""Mozilla/5.0 (Macintosh; Intel Mac OS X 10_15_7) AppleWebKit/537.36 (KHTML, like Gecko) Chrome/94.0.4606.61 Safari/537.36"",""on_chrome"":true,""on_mobile"":false,""language"":""nl-NL"",""screen_resolution"":[1440,900],""platform"":""MacIntel"",""timezone"":""Europe/Amsterdam""}","","","","1632921328722","21","","","silk","null","true","","","0.35","1","3","0.2","filler","F","","","silk","0.8177155256271362","[object SpeechRecognitionResultList]"
"905","","html-speech-API-response","65","207382","0.0-4.61-0.61","6","dutch","m3zwlxsyg12ocuq","{""user_agent"":""Mozilla/5.0 (Macintosh; Intel Mac OS X 10_15_7) AppleWebKit/537.36 (KHTML, like Gecko) Chrome/94.0.4606.61 Safari/537.36"",""on_chrome"":true,""on_mobile"":false,""language"":""nl-NL"",""screen_resolution"":[1440,900],""platform"":""MacIntel"",""timezone"":""Europe/Amsterdam""}","","","","1632921332116","21","","","silk","null","false","","","0.35","1","3","0.2","filler","F","","","silk","0.8177140951156616","[object SpeechRecognitionResultList]"
"909","","html-speech-API-response","66","210644","0.0-4.62-0.62","6","dutch","m3zwlxsyg12ocuq","{""user_agent"":""Mozilla/5.0 (Macintosh; Intel Mac OS X 10_15_7) AppleWebKit/537.36 (KHTML, like Gecko) Chrome/94.0.4606.61 Safari/537.36"",""on_chrome"":true,""on_mobile"":false,""language"":""nl-NL"",""screen_resolution"":[1440,900],""platform"":""MacIntel"",""timezone"":""Europe/Amsterdam""}","","","","1632921335401","21","","","silk","null","false","","","0.35","1","3","0.2","filler","F","","","silk","0.8177178502082825","[object SpeechRecognitionResultList]"
"1093","","html-speech-API-response","67","214139","0.0-4.63-0.63","6","dutch","m3zwlxsyg12ocuq","{""user_agent"":""Mozilla/5.0 (Macintosh; Intel Mac OS X 10_15_7) AppleWebKit/537.36 (KHTML, like Gecko) Chrome/94.0.4606.61 Safari/537.36"",""on_chrome"":true,""on_mobile"":false,""language"":""nl-NL"",""screen_resolution"":[1440,900],""platform"":""MacIntel"",""timezone"":""Europe/Amsterdam""}","","","","1632921338663","22","","","queen","null","true","","","0.35","1","3","0.2","filler","F","","","Queen","0.8130866885185242","[object SpeechRecognitionResultList]"
"1742","","html-speech-API-response","68","218244","0.0-4.64-0.64","6","dutch","m3zwlxsyg12ocuq","{""user_agent"":""Mozilla/5.0 (Macintosh; Intel Mac OS X 10_15_7) AppleWebKit/537.36 (KHTML, like Gecko) Chrome/94.0.4606.61 Safari/537.36"",""on_chrome"":true,""on_mobile"":false,""language"":""nl-NL"",""screen_resolution"":[1440,900],""platform"":""MacIntel"",""timezone"":""Europe/Amsterdam""}","","","","1632921342157","22","","","queen","null","false","","","0.35","1","3","0.2","filler","F","","","Queen","0.8130870461463928","[object SpeechRecognitionResultList]"
"910","","html-speech-API-response","69","221584","0.0-4.65-0.65","6","dutch","m3zwlxsyg12ocuq","{""user_agent"":""Mozilla/5.0 (Macintosh; Intel Mac OS X 10_15_7) AppleWebKit/537.36 (KHTML, like Gecko) Chrome/94.0.4606.61 Safari/537.36"",""on_chrome"":true,""on_mobile"":false,""language"":""nl-NL"",""screen_resolution"":[1440,900],""platform"":""MacIntel"",""timezone"":""Europe/Amsterdam""}","","","","1632921346262","22","","","queen","null","false","","","0.35","1","3","0.2","filler","F","","","Queen","0.8130865097045898","[object SpeechRecognitionResultList]"
"1090","","html-speech-API-response","70","225211","0.0-4.66-0.66","6","dutch","m3zwlxsyg12ocuq","{""user_agent"":""Mozilla/5.0 (Macintosh; Intel Mac OS X 10_15_7) AppleWebKit/537.36 (KHTML, like Gecko) Chrome/94.0.4606.61 Safari/537.36"",""on_chrome"":true,""on_mobile"":false,""language"":""nl-NL"",""screen_resolution"":[1440,900],""platform"":""MacIntel"",""timezone"":""Europe/Amsterdam""}","","","","1632921349603","23","","","ornament","null","true","","","0.35","1","3","0.2","filler","F","","","ornaments","0.728138267993927","[object SpeechRecognitionResultList]"
"908","","html-speech-API-response","71","228497","0.0-4.67-0.67","6","dutch","m3zwlxsyg12ocuq","{""user_agent"":""Mozilla/5.0 (Macintosh; Intel Mac OS X 10_15_7) AppleWebKit/537.36 (KHTML, like Gecko) Chrome/94.0.4606.61 Safari/537.36"",""on_chrome"":true,""on_mobile"":false,""language"":""nl-NL"",""screen_resolution"":[1440,900],""platform"":""MacIntel"",""timezone"":""Europe/Amsterdam""}","","","","1632921353229","23","","","ornament","null","false","","","0.35","1","3","0.2","filler","F","","","ornament","0.9546766877174377","[object SpeechRecognitionResultList]"
"905","","html-speech-API-response","72","231921","0.0-4.68-0.68","6","dutch","m3zwlxsyg12ocuq","{""user_agent"":""Mozilla/5.0 (Macintosh; Intel Mac OS X 10_15_7) AppleWebKit/537.36 (KHTML, like Gecko) Chrome/94.0.4606.61 Safari/537.36"",""on_chrome"":true,""on_mobile"":false,""language"":""nl-NL"",""screen_resolution"":[1440,900],""platform"":""MacIntel"",""timezone"":""Europe/Amsterdam""}","","","","1632921356516","23","","","ornament","null","false","","","0.35","1","3","0.2","filler","F","","","ornament","0.9546766877174377","[object SpeechRecognitionResultList]"
"1184","","html-speech-API-response","73","235472","0.0-4.69-0.69","6","dutch","m3zwlxsyg12ocuq","{""user_agent"":""Mozilla/5.0 (Macintosh; Intel Mac OS X 10_15_7) AppleWebKit/537.36 (KHTML, like Gecko) Chrome/94.0.4606.61 Safari/537.36"",""on_chrome"":true,""on_mobile"":false,""language"":""nl-NL"",""screen_resolution"":[1440,900],""platform"":""MacIntel"",""timezone"":""Europe/Amsterdam""}","","","","1632921359941","24","","","carpet","null","true","","","0.35","1","3","0.2","filler","F","","","carpet","0.8869618773460388","[object SpeechRecognitionResultList]"
"815","","html-speech-API-response","74","238618","0.0-4.70-0.70","6","dutch","m3zwlxsyg12ocuq","{""user_agent"":""Mozilla/5.0 (Macintosh; Intel Mac OS X 10_15_7) AppleWebKit/537.36 (KHTML, like Gecko) Chrome/94.0.4606.61 Safari/537.36"",""on_chrome"":true,""on_mobile"":false,""language"":""nl-NL"",""screen_resolution"":[1440,900],""platform"":""MacIntel"",""timezone"":""Europe/Amsterdam""}","","","","1632921363491","24","","","carpet","null","false","","","0.35","1","3","0.2","filler","F","","","carpets","0.8233460187911987","[object SpeechRecognitionResultList]"
"812","","html-speech-API-response","75","241735","0.0-4.71-0.71","6","dutch","m3zwlxsyg12ocuq","{""user_agent"":""Mozilla/5.0 (Macintosh; Intel Mac OS X 10_15_7) AppleWebKit/537.36 (KHTML, like Gecko) Chrome/94.0.4606.61 Safari/537.36"",""on_chrome"":true,""on_mobile"":false,""language"":""nl-NL"",""screen_resolution"":[1440,900],""platform"":""MacIntel"",""timezone"":""Europe/Amsterdam""}","","","","1632921366637","24","","","carpet","null","false","","","0.35","1","3","0.2","filler","F","","","carpet","0.8869620561599731","[object SpeechRecognitionResultList]"
"830","","html-speech-API-response","76","245354","0.0-4.72-0.72","6","dutch","m3zwlxsyg12ocuq","{""user_agent"":""Mozilla/5.0 (Macintosh; Intel Mac OS X 10_15_7) AppleWebKit/537.36 (KHTML, like Gecko) Chrome/94.0.4606.61 Safari/537.36"",""on_chrome"":true,""on_mobile"":false,""language"":""nl-NL"",""screen_resolution"":[1440,900],""platform"":""MacIntel"",""timezone"":""Europe/Amsterdam""}","","","","1632921369754","25","","","barrel","null","true","","","0.35","1","3","0.2","filler","F","","","Daryl","0.8458878397941589","[object SpeechRecognitionResultList]"
"811","","html-speech-API-response","77","248649","0.0-4.73-0.73","6","dutch","m3zwlxsyg12ocuq","{""user_agent"":""Mozilla/5.0 (Macintosh; Intel Mac OS X 10_15_7) AppleWebKit/537.36 (KHTML, like Gecko) Chrome/94.0.4606.61 Safari/537.36"",""on_chrome"":true,""on_mobile"":false,""language"":""nl-NL"",""screen_resolution"":[1440,900],""platform"":""MacIntel"",""timezone"":""Europe/Amsterdam""}","","","","1632921373372","25","","","barrel","null","false","","","0.35","1","3","0.2","filler","F","","","Daryl","0.791531503200531","[object SpeechRecognitionResultList]"
"907","","html-speech-API-response","78","252026","0.0-4.74-0.74","6","dutch","m3zwlxsyg12ocuq","{""user_agent"":""Mozilla/5.0 (Macintosh; Intel Mac OS X 10_15_7) AppleWebKit/537.36 (KHTML, like Gecko) Chrome/94.0.4606.61 Safari/537.36"",""on_chrome"":true,""on_mobile"":false,""language"":""nl-NL"",""screen_resolution"":[1440,900],""platform"":""MacIntel"",""timezone"":""Europe/Amsterdam""}","","","","1632921376668","25","","","barrel","null","false","","","0.35","1","3","0.2","filler","F","","","Daryl","0.6564928889274597","[object SpeechRecognitionResultList]"
"1001","","html-speech-API-response","79","255480","0.0-4.75-0.75","6","dutch","m3zwlxsyg12ocuq","{""user_agent"":""Mozilla/5.0 (Macintosh; Intel Mac OS X 10_15_7) AppleWebKit/537.36 (KHTML, like Gecko) Chrome/94.0.4606.61 Safari/537.36"",""on_chrome"":true,""on_mobile"":false,""language"":""nl-NL"",""screen_resolution"":[1440,900],""platform"":""MacIntel"",""timezone"":""Europe/Amsterdam""}","","","","1632921380045","26","","","rumour","null","true","","","0.35","1","3","0.2","filler","F","","","rumour","0.8589375019073486","[object SpeechRecognitionResultList]"
"905","","html-speech-API-response","80","258689","0.0-4.76-0.76","6","dutch","m3zwlxsyg12ocuq","{""user_agent"":""Mozilla/5.0 (Macintosh; Intel Mac OS X 10_15_7) AppleWebKit/537.36 (KHTML, like Gecko) Chrome/94.0.4606.61 Safari/537.36"",""on_chrome"":true,""on_mobile"":false,""language"":""nl-NL"",""screen_resolution"":[1440,900],""platform"":""MacIntel"",""timezone"":""Europe/Amsterdam""}","","","","1632921383499","26","","","rumour","null","false","","","0.35","1","3","0.2","filler","F","","","rumour","0.8675792217254639","[object SpeechRecognitionResultList]"
"905","","html-speech-API-response","81","261982","0.0-4.77-0.77","6","dutch","m3zwlxsyg12ocuq","{""user_agent"":""Mozilla/5.0 (Macintosh; Intel Mac OS X 10_15_7) AppleWebKit/537.36 (KHTML, like Gecko) Chrome/94.0.4606.61 Safari/537.36"",""on_chrome"":true,""on_mobile"":false,""language"":""nl-NL"",""screen_resolution"":[1440,900],""platform"":""MacIntel"",""timezone"":""Europe/Amsterdam""}","","","","1632921386707","26","","","rumour","null","false","","","0.35","1","3","0.2","filler","F","","","rumour","0.8767865300178528","[object SpeechRecognitionResultList]"
"1092","","html-speech-API-response","82","265398","0.0-4.78-0.78","6","dutch","m3zwlxsyg12ocuq","{""user_agent"":""Mozilla/5.0 (Macintosh; Intel Mac OS X 10_15_7) AppleWebKit/537.36 (KHTML, like Gecko) Chrome/94.0.4606.61 Safari/537.36"",""on_chrome"":true,""on_mobile"":false,""language"":""nl-NL"",""screen_resolution"":[1440,900],""platform"":""MacIntel"",""timezone"":""Europe/Amsterdam""}","","","","1632921390000","27","","","curtain","null","true","","","0.35","1","3","0.2","filler","F","","","curtain","0.2848615050315857","[object SpeechRecognitionResultList]"
"811","","html-speech-API-response","83","268546","0.0-4.79-0.79","6","dutch","m3zwlxsyg12ocuq","{""user_agent"":""Mozilla/5.0 (Macintosh; Intel Mac OS X 10_15_7) AppleWebKit/537.36 (KHTML, like Gecko) Chrome/94.0.4606.61 Safari/537.36"",""on_chrome"":true,""on_mobile"":false,""language"":""nl-NL"",""screen_resolution"":[1440,900],""platform"":""MacIntel"",""timezone"":""Europe/Amsterdam""}","","","","1632921393416","27","","","curtain","null","false","","","0.35","1","3","0.2","filler","F","","","curtain","0.7382740378379822","[object SpeechRecognitionResultList]"
"1886","","html-speech-API-response","84","271438","0.0-4.80-0.80","6","dutch","m3zwlxsyg12ocuq","{""user_agent"":""Mozilla/5.0 (Macintosh; Intel Mac OS X 10_15_7) AppleWebKit/537.36 (KHTML, like Gecko) Chrome/94.0.4606.61 Safari/537.36"",""on_chrome"":true,""on_mobile"":false,""language"":""nl-NL"",""screen_resolution"":[1440,900],""platform"":""MacIntel"",""timezone"":""Europe/Amsterdam""}","","","","1632921396564","27","","","curtain","null","false","","","0.35","1","3","0.2","filler","F","","","curtain","0.7993931770324707","[object SpeechRecognitionResultList]"
"1095","","html-speech-API-response","85","274965","0.0-4.81-0.81","6","dutch","m3zwlxsyg12ocuq","{""user_agent"":""Mozilla/5.0 (Macintosh; Intel Mac OS X 10_15_7) AppleWebKit/537.36 (KHTML, like Gecko) Chrome/94.0.4606.61 Safari/537.36"",""on_chrome"":true,""on_mobile"":false,""language"":""nl-NL"",""screen_resolution"":[1440,900],""platform"":""MacIntel"",""timezone"":""Europe/Amsterdam""}","","","","1632921399457","28","","","snow","null","true","","","0.35","1","3","0.2","filler","F","","","snow","0.8791357278823853","[object SpeechRecognitionResultList]"
"813","","html-speech-API-response","86","278187","0.0-4.82-0.82","6","dutch","m3zwlxsyg12ocuq","{""user_agent"":""Mozilla/5.0 (Macintosh; Intel Mac OS X 10_15_7) AppleWebKit/537.36 (KHTML, like Gecko) Chrome/94.0.4606.61 Safari/537.36"",""on_chrome"":true,""on_mobile"":false,""language"":""nl-NL"",""screen_resolution"":[1440,900],""platform"":""MacIntel"",""timezone"":""Europe/Amsterdam""}","","","","1632921402983","28","","","snow","null","false","","","0.35","1","3","0.2","filler","F","","","snow","0.879135251045227","[object SpeechRecognitionResultList]"
"907","","html-speech-API-response","87","281382","0.0-4.83-0.83","6","dutch","m3zwlxsyg12ocuq","{""user_agent"":""Mozilla/5.0 (Macintosh; Intel Mac OS X 10_15_7) AppleWebKit/537.36 (KHTML, like Gecko) Chrome/94.0.4606.61 Safari/537.36"",""on_chrome"":true,""on_mobile"":false,""language"":""nl-NL"",""screen_resolution"":[1440,900],""platform"":""MacIntel"",""timezone"":""Europe/Amsterdam""}","","","","1632921406206","28","","","snow","null","false","","","0.35","1","3","0.2","filler","F","","","snow","0.8737756609916687","[object SpeechRecognitionResultList]"
"999","","html-speech-API-response","88","284700","0.0-4.84-0.84","6","dutch","m3zwlxsyg12ocuq","{""user_agent"":""Mozilla/5.0 (Macintosh; Intel Mac OS X 10_15_7) AppleWebKit/537.36 (KHTML, like Gecko) Chrome/94.0.4606.61 Safari/537.36"",""on_chrome"":true,""on_mobile"":false,""language"":""nl-NL"",""screen_resolution"":[1440,900],""platform"":""MacIntel"",""timezone"":""Europe/Amsterdam""}","","","","1632921409402","29","","","monkey","null","true","","","0.35","1","3","0.2","filler","F","","","monkey","0.8928243517875671","[object SpeechRecognitionResultList]"
"814","","html-speech-API-response","89","287921","0.0-4.85-0.85","6","dutch","m3zwlxsyg12ocuq","{""user_agent"":""Mozilla/5.0 (Macintosh; Intel Mac OS X 10_15_7) AppleWebKit/537.36 (KHTML, like Gecko) Chrome/94.0.4606.61 Safari/537.36"",""on_chrome"":true,""on_mobile"":false,""language"":""nl-NL"",""screen_resolution"":[1440,900],""platform"":""MacIntel"",""timezone"":""Europe/Amsterdam""}","","","","1632921412717","29","","","monkey","null","false","","","0.35","1","3","0.2","filler","F","","","monkey","0.8917688727378845","[object SpeechRecognitionResultList]"
"907","","html-speech-API-response","90","291140","0.0-4.86-0.86","6","dutch","m3zwlxsyg12ocuq","{""user_agent"":""Mozilla/5.0 (Macintosh; Intel Mac OS X 10_15_7) AppleWebKit/537.36 (KHTML, like Gecko) Chrome/94.0.4606.61 Safari/537.36"",""on_chrome"":true,""on_mobile"":false,""language"":""nl-NL"",""screen_resolution"":[1440,900],""platform"":""MacIntel"",""timezone"":""Europe/Amsterdam""}","","","","1632921415939","29","","","monkey","null","false","","","0.35","1","3","0.2","filler","F","","","monkey","0.8928251266479492","[object SpeechRecognitionResultList]"
"1001","","html-speech-API-response","91","294533","0.0-4.87-0.87","6","dutch","m3zwlxsyg12ocuq","{""user_agent"":""Mozilla/5.0 (Macintosh; Intel Mac OS X 10_15_7) AppleWebKit/537.36 (KHTML, like Gecko) Chrome/94.0.4606.61 Safari/537.36"",""on_chrome"":true,""on_mobile"":false,""language"":""nl-NL"",""screen_resolution"":[1440,900],""platform"":""MacIntel"",""timezone"":""Europe/Amsterdam""}","","","","1632921419157","30","","","steam","null","true","","","0.35","1","3","0.2","filler","F","","","steam","0.8249370455741882","[object SpeechRecognitionResultList]"
"906","","html-speech-API-response","92","297937","0.0-4.88-0.88","6","dutch","m3zwlxsyg12ocuq","{""user_agent"":""Mozilla/5.0 (Macintosh; Intel Mac OS X 10_15_7) AppleWebKit/537.36 (KHTML, like Gecko) Chrome/94.0.4606.61 Safari/537.36"",""on_chrome"":true,""on_mobile"":false,""language"":""nl-NL"",""screen_resolution"":[1440,900],""platform"":""MacIntel"",""timezone"":""Europe/Amsterdam""}","","","","1632921422551","30","","","steam","null","false","","","0.35","1","3","0.2","filler","F","","","steam","0.824936032295227","[object SpeechRecognitionResultList]"
"906","","html-speech-API-response","93","301273","0.0-4.89-0.89","6","dutch","m3zwlxsyg12ocuq","{""user_agent"":""Mozilla/5.0 (Macintosh; Intel Mac OS X 10_15_7) AppleWebKit/537.36 (KHTML, like Gecko) Chrome/94.0.4606.61 Safari/537.36"",""on_chrome"":true,""on_mobile"":false,""language"":""nl-NL"",""screen_resolution"":[1440,900],""platform"":""MacIntel"",""timezone"":""Europe/Amsterdam""}","","","","1632921425955","30","","","steam","null","false","","","0.35","1","3","0.2","filler","F","","","steam","0.8249362707138062","[object SpeechRecognitionResultList]"
"908","","html-speech-API-response","94","304741","0.0-4.90-0.90","6","dutch","m3zwlxsyg12ocuq","{""user_agent"":""Mozilla/5.0 (Macintosh; Intel Mac OS X 10_15_7) AppleWebKit/537.36 (KHTML, like Gecko) Chrome/94.0.4606.61 Safari/537.36"",""on_chrome"":true,""on_mobile"":false,""language"":""nl-NL"",""screen_resolution"":[1440,900],""platform"":""MacIntel"",""timezone"":""Europe/Amsterdam""}","","","","1632921429291","31","","","leisure","null","true","","","0.35","1","3","0.2","filler","F","","","Leisure","0.8523012399673462","[object SpeechRecognitionResultList]"
"904","","html-speech-API-response","95","308045","0.0-4.91-0.91","6","dutch","m3zwlxsyg12ocuq","{""user_agent"":""Mozilla/5.0 (Macintosh; Intel Mac OS X 10_15_7) AppleWebKit/537.36 (KHTML, like Gecko) Chrome/94.0.4606.61 Safari/537.36"",""on_chrome"":true,""on_mobile"":false,""language"":""nl-NL"",""screen_resolution"":[1440,900],""platform"":""MacIntel"",""timezone"":""Europe/Amsterdam""}","","","","1632921432758","31","","","leisure","null","false","","","0.35","1","3","0.2","filler","F","","","Leisure","0.864963710308075","[object SpeechRecognitionResultList]"
"1091","","html-speech-API-response","96","311578","0.0-4.92-0.92","6","dutch","m3zwlxsyg12ocuq","{""user_agent"":""Mozilla/5.0 (Macintosh; Intel Mac OS X 10_15_7) AppleWebKit/537.36 (KHTML, like Gecko) Chrome/94.0.4606.61 Safari/537.36"",""on_chrome"":true,""on_mobile"":false,""language"":""nl-NL"",""screen_resolution"":[1440,900],""platform"":""MacIntel"",""timezone"":""Europe/Amsterdam""}","","","","1632921436063","31","","","leisure","null","false","","","0.35","1","3","0.2","filler","F","","","Leisure","0.8625271916389465","[object SpeechRecognitionResultList]"
"1001","","html-speech-API-response","97","314920","0.0-4.93-0.93","6","dutch","m3zwlxsyg12ocuq","{""user_agent"":""Mozilla/5.0 (Macintosh; Intel Mac OS X 10_15_7) AppleWebKit/537.36 (KHTML, like Gecko) Chrome/94.0.4606.61 Safari/537.36"",""on_chrome"":true,""on_mobile"":false,""language"":""nl-NL"",""screen_resolution"":[1440,900],""platform"":""MacIntel"",""timezone"":""Europe/Amsterdam""}","","","","1632921439597","32","","","grave","null","true","","","0.35","1","3","0.2","filler","F","","","grave","0.9546766877174377","[object SpeechRecognitionResultList]"
"813","","html-speech-API-response","98","318246","0.0-4.94-0.94","6","dutch","m3zwlxsyg12ocuq","{""user_agent"":""Mozilla/5.0 (Macintosh; Intel Mac OS X 10_15_7) AppleWebKit/537.36 (KHTML, like Gecko) Chrome/94.0.4606.61 Safari/537.36"",""on_chrome"":true,""on_mobile"":false,""language"":""nl-NL"",""screen_resolution"":[1440,900],""platform"":""MacIntel"",""timezone"":""Europe/Amsterdam""}","","","","1632921442939","32","","","grave","null","false","","","0.35","1","3","0.2","filler","F","","","Grace","0.3007425367832184","[object SpeechRecognitionResultList]"
"906","","html-speech-API-response","99","321601","0.0-4.95-0.95","6","dutch","m3zwlxsyg12ocuq","{""user_agent"":""Mozilla/5.0 (Macintosh; Intel Mac OS X 10_15_7) AppleWebKit/537.36 (KHTML, like Gecko) Chrome/94.0.4606.61 Safari/537.36"",""on_chrome"":true,""on_mobile"":false,""language"":""nl-NL"",""screen_resolution"":[1440,900],""platform"":""MacIntel"",""timezone"":""Europe/Amsterdam""}","","","","1632921446265","32","","","grave","null","false","","","0.35","1","3","0.2","filler","F","","","graze","0.8732070922851562","[object SpeechRecognitionResultList]"
"999","","html-speech-API-response","100","324982","0.0-4.96-0.96","6","dutch","m3zwlxsyg12ocuq","{""user_agent"":""Mozilla/5.0 (Macintosh; Intel Mac OS X 10_15_7) AppleWebKit/537.36 (KHTML, like Gecko) Chrome/94.0.4606.61 Safari/537.36"",""on_chrome"":true,""on_mobile"":false,""language"":""nl-NL"",""screen_resolution"":[1440,900],""platform"":""MacIntel"",""timezone"":""Europe/Amsterdam""}","","","","1632921449618","33","","","friend","null","true","","","0.35","1","3","0.2","filler","F","","","friend","0.8856572508811951","[object SpeechRecognitionResultList]"
"813","","html-speech-API-response","101","328174","0.0-4.97-0.97","6","dutch","m3zwlxsyg12ocuq","{""user_agent"":""Mozilla/5.0 (Macintosh; Intel Mac OS X 10_15_7) AppleWebKit/537.36 (KHTML, like Gecko) Chrome/94.0.4606.61 Safari/537.36"",""on_chrome"":true,""on_mobile"":false,""language"":""nl-NL"",""screen_resolution"":[1440,900],""platform"":""MacIntel"",""timezone"":""Europe/Amsterdam""}","","","","1632921453000","33","","","friend","null","false","","","0.35","1","3","0.2","filler","F","","","friend","0.8856573104858398","[object SpeechRecognitionResultList]"
"816","","html-speech-API-response","102","331365","0.0-4.98-0.98","6","dutch","m3zwlxsyg12ocuq","{""user_agent"":""Mozilla/5.0 (Macintosh; Intel Mac OS X 10_15_7) AppleWebKit/537.36 (KHTML, like Gecko) Chrome/94.0.4606.61 Safari/537.36"",""on_chrome"":true,""on_mobile"":false,""language"":""nl-NL"",""screen_resolution"":[1440,900],""platform"":""MacIntel"",""timezone"":""Europe/Amsterdam""}","","","","1632921456192","33","","","friend","null","false","","","0.35","1","3","0.2","filler","F","","","friend","0.8856582641601562","[object SpeechRecognitionResultList]"
"815","","html-speech-API-response","103","334605","0.0-4.99-0.99","6","dutch","m3zwlxsyg12ocuq","{""user_agent"":""Mozilla/5.0 (Macintosh; Intel Mac OS X 10_15_7) AppleWebKit/537.36 (KHTML, like Gecko) Chrome/94.0.4606.61 Safari/537.36"",""on_chrome"":true,""on_mobile"":false,""language"":""nl-NL"",""screen_resolution"":[1440,900],""platform"":""MacIntel"",""timezone"":""Europe/Amsterdam""}","","","","1632921459383","34","","","prayer","null","true","","","0.35","1","3","0.2","filler","F","","","prayer","0.8246869444847107","[object SpeechRecognitionResultList]"
"813","","html-speech-API-response","104","337752","0.0-4.100-0.100","6","dutch","m3zwlxsyg12ocuq","{""user_agent"":""Mozilla/5.0 (Macintosh; Intel Mac OS X 10_15_7) AppleWebKit/537.36 (KHTML, like Gecko) Chrome/94.0.4606.61 Safari/537.36"",""on_chrome"":true,""on_mobile"":false,""language"":""nl-NL"",""screen_resolution"":[1440,900],""platform"":""MacIntel"",""timezone"":""Europe/Amsterdam""}","","","","1632921462624","34","","","prayer","null","false","","","0.35","1","3","0.2","filler","F","","","prayer","0.829990804195404","[object SpeechRecognitionResultList]"
"813","","html-speech-API-response","105","340911","0.0-4.101-0.101","6","dutch","m3zwlxsyg12ocuq","{""user_agent"":""Mozilla/5.0 (Macintosh; Intel Mac OS X 10_15_7) AppleWebKit/537.36 (KHTML, like Gecko) Chrome/94.0.4606.61 Safari/537.36"",""on_chrome"":true,""on_mobile"":false,""language"":""nl-NL"",""screen_resolution"":[1440,900],""platform"":""MacIntel"",""timezone"":""Europe/Amsterdam""}","","","","1632921465771","34","","","prayer","null","false","","","0.35","1","3","0.2","filler","F","","","prayer","0.8299915790557861","[object SpeechRecognitionResultList]"
"814","","html-speech-API-response","106","344239","0.0-4.102-0.102","6","dutch","m3zwlxsyg12ocuq","{""user_agent"":""Mozilla/5.0 (Macintosh; Intel Mac OS X 10_15_7) AppleWebKit/537.36 (KHTML, like Gecko) Chrome/94.0.4606.61 Safari/537.36"",""on_chrome"":true,""on_mobile"":false,""language"":""nl-NL"",""screen_resolution"":[1440,900],""platform"":""MacIntel"",""timezone"":""Europe/Amsterdam""}","","","","1632921468930","35","","","shorts","null","true","","","0.35","1","3","0.2","filler","F","","","shirts","0.8732113242149353","[object SpeechRecognitionResultList]"
"813","","html-speech-API-response","107","347465","0.0-4.103-0.103","6","dutch","m3zwlxsyg12ocuq","{""user_agent"":""Mozilla/5.0 (Macintosh; Intel Mac OS X 10_15_7) AppleWebKit/537.36 (KHTML, like Gecko) Chrome/94.0.4606.61 Safari/537.36"",""on_chrome"":true,""on_mobile"":false,""language"":""nl-NL"",""screen_resolution"":[1440,900],""platform"":""MacIntel"",""timezone"":""Europe/Amsterdam""}","","","","1632921472258","35","","","shorts","null","false","","","0.35","1","3","0.2","filler","F","","","George","0.7468204498291016","[object SpeechRecognitionResultList]"
"898","","html-speech-API-response","108","350940","0.0-4.104-0.104","6","dutch","m3zwlxsyg12ocuq","{""user_agent"":""Mozilla/5.0 (Macintosh; Intel Mac OS X 10_15_7) AppleWebKit/537.36 (KHTML, like Gecko) Chrome/94.0.4606.61 Safari/537.36"",""on_chrome"":true,""on_mobile"":false,""language"":""nl-NL"",""screen_resolution"":[1440,900],""platform"":""MacIntel"",""timezone"":""Europe/Amsterdam""}","","","","1632921475484","35","","","shorts","null","false","","","0.35","1","3","0.2","filler","F","","","shorts","0.9546766877174377","[object SpeechRecognitionResultList]"
"1000","","html-speech-API-response","109","354252","0.0-4.105-0.105","6","dutch","m3zwlxsyg12ocuq","{""user_agent"":""Mozilla/5.0 (Macintosh; Intel Mac OS X 10_15_7) AppleWebKit/537.36 (KHTML, like Gecko) Chrome/94.0.4606.61 Safari/537.36"",""on_chrome"":true,""on_mobile"":false,""language"":""nl-NL"",""screen_resolution"":[1440,900],""platform"":""MacIntel"",""timezone"":""Europe/Amsterdam""}","","","","1632921478959","36","","","boat","null","true","","","0.35","1","3","0.2","filler","F","","","note","0.8647469878196716","[object SpeechRecognitionResultList]"
"999","","html-speech-API-response","110","357637","0.0-4.106-0.106","6","dutch","m3zwlxsyg12ocuq","{""user_agent"":""Mozilla/5.0 (Macintosh; Intel Mac OS X 10_15_7) AppleWebKit/537.36 (KHTML, like Gecko) Chrome/94.0.4606.61 Safari/537.36"",""on_chrome"":true,""on_mobile"":false,""language"":""nl-NL"",""screen_resolution"":[1440,900],""platform"":""MacIntel"",""timezone"":""Europe/Amsterdam""}","","","","1632921482270","36","","","boat","null","false","","","0.35","1","3","0.2","filler","F","","","boat","0.888046145439148","[object SpeechRecognitionResultList]"
"1091","","html-speech-API-response","111","360988","0.0-4.107-0.107","6","dutch","m3zwlxsyg12ocuq","{""user_agent"":""Mozilla/5.0 (Macintosh; Intel Mac OS X 10_15_7) AppleWebKit/537.36 (KHTML, like Gecko) Chrome/94.0.4606.61 Safari/537.36"",""on_chrome"":true,""on_mobile"":false,""language"":""nl-NL"",""screen_resolution"":[1440,900],""platform"":""MacIntel"",""timezone"":""Europe/Amsterdam""}","","","","1632921485657","36","","","boat","null","false","","","0.35","1","3","0.2","filler","F","","","boat","0.903754711151123","[object SpeechRecognitionResultList]"
"1092","","html-speech-API-response","112","364585","0.0-4.108-0.108","6","dutch","m3zwlxsyg12ocuq","{""user_agent"":""Mozilla/5.0 (Macintosh; Intel Mac OS X 10_15_7) AppleWebKit/537.36 (KHTML, like Gecko) Chrome/94.0.4606.61 Safari/537.36"",""on_chrome"":true,""on_mobile"":false,""language"":""nl-NL"",""screen_resolution"":[1440,900],""platform"":""MacIntel"",""timezone"":""Europe/Amsterdam""}","","","","1632921489007","37","","","donkey","null","true","","","0.35","1","3","0.2","filler","F","","","donkey","0.8656306266784668","[object SpeechRecognitionResultList]"
"1092","","html-speech-API-response","113","368072","0.0-4.109-0.109","6","dutch","m3zwlxsyg12ocuq","{""user_agent"":""Mozilla/5.0 (Macintosh; Intel Mac OS X 10_15_7) AppleWebKit/537.36 (KHTML, like Gecko) Chrome/94.0.4606.61 Safari/537.36"",""on_chrome"":true,""on_mobile"":false,""language"":""nl-NL"",""screen_resolution"":[1440,900],""platform"":""MacIntel"",""timezone"":""Europe/Amsterdam""}","","","","1632921492604","37","","","donkey","null","false","","","0.35","1","3","0.2","filler","F","","","donkey","0.8656306266784668","[object SpeechRecognitionResultList]"
"907","","html-speech-API-response","114","371741","0.0-4.110-0.110","6","dutch","m3zwlxsyg12ocuq","{""user_agent"":""Mozilla/5.0 (Macintosh; Intel Mac OS X 10_15_7) AppleWebKit/537.36 (KHTML, like Gecko) Chrome/94.0.4606.61 Safari/537.36"",""on_chrome"":true,""on_mobile"":false,""language"":""nl-NL"",""screen_resolution"":[1440,900],""platform"":""MacIntel"",""timezone"":""Europe/Amsterdam""}","","","","1632921496092","37","","","donkey","null","false","","","0.35","1","3","0.2","filler","F","","","donkey","0.850822925567627","[object SpeechRecognitionResultList]"
"1000","","html-speech-API-response","115","374989","0.0-4.111-0.111","6","dutch","m3zwlxsyg12ocuq","{""user_agent"":""Mozilla/5.0 (Macintosh; Intel Mac OS X 10_15_7) AppleWebKit/537.36 (KHTML, like Gecko) Chrome/94.0.4606.61 Safari/537.36"",""on_chrome"":true,""on_mobile"":false,""language"":""nl-NL"",""screen_resolution"":[1440,900],""platform"":""MacIntel"",""timezone"":""Europe/Amsterdam""}","","","","1632921499762","38","","","sleep","null","true","","","0.35","1","3","0.2","filler","F","","","sleep","0.9213557243347168","[object SpeechRecognitionResultList]"
"910","","html-speech-API-response","116","378223","0.0-4.112-0.112","6","dutch","m3zwlxsyg12ocuq","{""user_agent"":""Mozilla/5.0 (Macintosh; Intel Mac OS X 10_15_7) AppleWebKit/537.36 (KHTML, like Gecko) Chrome/94.0.4606.61 Safari/537.36"",""on_chrome"":true,""on_mobile"":false,""language"":""nl-NL"",""screen_resolution"":[1440,900],""platform"":""MacIntel"",""timezone"":""Europe/Amsterdam""}","","","","1632921503008","38","","","sleep","null","false","","","0.35","1","3","0.2","filler","F","","","sleep","0.9213552474975586","[object SpeechRecognitionResultList]"
"998","","html-speech-API-response","117","381568","0.0-4.113-0.113","6","dutch","m3zwlxsyg12ocuq","{""user_agent"":""Mozilla/5.0 (Macintosh; Intel Mac OS X 10_15_7) AppleWebKit/537.36 (KHTML, like Gecko) Chrome/94.0.4606.61 Safari/537.36"",""on_chrome"":true,""on_mobile"":false,""language"":""nl-NL"",""screen_resolution"":[1440,900],""platform"":""MacIntel"",""timezone"":""Europe/Amsterdam""}","","","","1632921506245","38","","","sleep","null","false","","","0.35","1","3","0.2","filler","F","","","sleep","0.9213502407073975","[object SpeechRecognitionResultList]"
"1094","","html-speech-API-response","118","384918","0.0-4.114-0.114","6","dutch","m3zwlxsyg12ocuq","{""user_agent"":""Mozilla/5.0 (Macintosh; Intel Mac OS X 10_15_7) AppleWebKit/537.36 (KHTML, like Gecko) Chrome/94.0.4606.61 Safari/537.36"",""on_chrome"":true,""on_mobile"":false,""language"":""nl-NL"",""screen_resolution"":[1440,900],""platform"":""MacIntel"",""timezone"":""Europe/Amsterdam""}","","","","1632921509588","39","","","lake","null","true","","","0.35","1","3","0.2","filler","F","","","Lake","0.8288211822509766","[object SpeechRecognitionResultList]"
"907","","html-speech-API-response","119","388047","0.0-4.115-0.115","6","dutch","m3zwlxsyg12ocuq","{""user_agent"":""Mozilla/5.0 (Macintosh; Intel Mac OS X 10_15_7) AppleWebKit/537.36 (KHTML, like Gecko) Chrome/94.0.4606.61 Safari/537.36"",""on_chrome"":true,""on_mobile"":false,""language"":""nl-NL"",""screen_resolution"":[1440,900],""platform"":""MacIntel"",""timezone"":""Europe/Amsterdam""}","","","","1632921512936","39","","","lake","null","false","","","0.35","1","3","0.2","filler","F","","","Lake","0.8288207054138184","[object SpeechRecognitionResultList]"
"812","","html-speech-API-response","120","391178","0.0-4.116-0.116","6","dutch","m3zwlxsyg12ocuq","{""user_agent"":""Mozilla/5.0 (Macintosh; Intel Mac OS X 10_15_7) AppleWebKit/537.36 (KHTML, like Gecko) Chrome/94.0.4606.61 Safari/537.36"",""on_chrome"":true,""on_mobile"":false,""language"":""nl-NL"",""screen_resolution"":[1440,900],""platform"":""MacIntel"",""timezone"":""Europe/Amsterdam""}","","","","1632921516066","39","","","lake","null","false","","","0.35","1","3","0.2","filler","F","","","Lake","0.8288217186927795","[object SpeechRecognitionResultList]"
"999","","html-speech-API-response","121","394638","0.0-4.117-0.117","6","dutch","m3zwlxsyg12ocuq","{""user_agent"":""Mozilla/5.0 (Macintosh; Intel Mac OS X 10_15_7) AppleWebKit/537.36 (KHTML, like Gecko) Chrome/94.0.4606.61 Safari/537.36"",""on_chrome"":true,""on_mobile"":false,""language"":""nl-NL"",""screen_resolution"":[1440,900],""platform"":""MacIntel"",""timezone"":""Europe/Amsterdam""}","","","","1632921519197","40","","","science","null","true","","","0.35","1","3","0.2","filler","F","","","science","0.8834249377250671","[object SpeechRecognitionResultList]"
"998","","html-speech-API-response","122","398197","0.0-4.118-0.118","6","dutch","m3zwlxsyg12ocuq","{""user_agent"":""Mozilla/5.0 (Macintosh; Intel Mac OS X 10_15_7) AppleWebKit/537.36 (KHTML, like Gecko) Chrome/94.0.4606.61 Safari/537.36"",""on_chrome"":true,""on_mobile"":false,""language"":""nl-NL"",""screen_resolution"":[1440,900],""platform"":""MacIntel"",""timezone"":""Europe/Amsterdam""}","","","","1632921522656","40","","","science","null","false","","","0.35","1","3","0.2","filler","F","","","science","0.8834859132766724","[object SpeechRecognitionResultList]"
"1091","","html-speech-API-response","123","401726","0.0-4.119-0.119","6","dutch","m3zwlxsyg12ocuq","{""user_agent"":""Mozilla/5.0 (Macintosh; Intel Mac OS X 10_15_7) AppleWebKit/537.36 (KHTML, like Gecko) Chrome/94.0.4606.61 Safari/537.36"",""on_chrome"":true,""on_mobile"":false,""language"":""nl-NL"",""screen_resolution"":[1440,900],""platform"":""MacIntel"",""timezone"":""Europe/Amsterdam""}","","","","1632921526216","40","","","science","null","false","","","0.35","1","3","0.2","filler","F","","","science","0.8834857940673828","[object SpeechRecognitionResultList]"
"1187","","html-speech-API-response","124","405330","0.0-4.120-0.120","6","dutch","m3zwlxsyg12ocuq","{""user_agent"":""Mozilla/5.0 (Macintosh; Intel Mac OS X 10_15_7) AppleWebKit/537.36 (KHTML, like Gecko) Chrome/94.0.4606.61 Safari/537.36"",""on_chrome"":true,""on_mobile"":false,""language"":""nl-NL"",""screen_resolution"":[1440,900],""platform"":""MacIntel"",""timezone"":""Europe/Amsterdam""}","","","","1632921529745","41","","","olives","null","true","","","0.35","1","3","0.2","filler","F","","","Alice","0.7998921871185303","[object SpeechRecognitionResultList]"
"999","","html-speech-API-response","125","408723","0.0-4.121-0.121","6","dutch","m3zwlxsyg12ocuq","{""user_agent"":""Mozilla/5.0 (Macintosh; Intel Mac OS X 10_15_7) AppleWebKit/537.36 (KHTML, like Gecko) Chrome/94.0.4606.61 Safari/537.36"",""on_chrome"":true,""on_mobile"":false,""language"":""nl-NL"",""screen_resolution"":[1440,900],""platform"":""MacIntel"",""timezone"":""Europe/Amsterdam""}","","","","1632921533349","41","","","olives","null","false","","","0.35","1","3","0.2","filler","F","","","olives","0.9546766877174377","[object SpeechRecognitionResultList]"
"1185","","html-speech-API-response","126","412235","0.0-4.122-0.122","6","dutch","m3zwlxsyg12ocuq","{""user_agent"":""Mozilla/5.0 (Macintosh; Intel Mac OS X 10_15_7) AppleWebKit/537.36 (KHTML, like Gecko) Chrome/94.0.4606.61 Safari/537.36"",""on_chrome"":true,""on_mobile"":false,""language"":""nl-NL"",""screen_resolution"":[1440,900],""platform"":""MacIntel"",""timezone"":""Europe/Amsterdam""}","","","","1632921536742","41","","","olives","null","false","","","0.35","1","3","0.2","filler","F","","","olive","0.4617055654525757","[object SpeechRecognitionResultList]"
"1186","","html-speech-API-response","127","415784","0.0-4.123-0.123","6","dutch","m3zwlxsyg12ocuq","{""user_agent"":""Mozilla/5.0 (Macintosh; Intel Mac OS X 10_15_7) AppleWebKit/537.36 (KHTML, like Gecko) Chrome/94.0.4606.61 Safari/537.36"",""on_chrome"":true,""on_mobile"":false,""language"":""nl-NL"",""screen_resolution"":[1440,900],""platform"":""MacIntel"",""timezone"":""Europe/Amsterdam""}","","","","1632921540255","42","","","honour","null","true","","","0.35","1","3","0.2","filler","F","","","honour","0.8250178098678589","[object SpeechRecognitionResultList]"
"1186","","html-speech-API-response","128","419314","0.0-4.124-0.124","6","dutch","m3zwlxsyg12ocuq","{""user_agent"":""Mozilla/5.0 (Macintosh; Intel Mac OS X 10_15_7) AppleWebKit/537.36 (KHTML, like Gecko) Chrome/94.0.4606.61 Safari/537.36"",""on_chrome"":true,""on_mobile"":false,""language"":""nl-NL"",""screen_resolution"":[1440,900],""platform"":""MacIntel"",""timezone"":""Europe/Amsterdam""}","","","","1632921543803","42","","","honour","null","false","","","0.35","1","3","0.2","filler","F","","","honour","0.9094051122665405","[object SpeechRecognitionResultList]"
"1091","","html-speech-API-response","129","422650","0.0-4.125-0.125","6","dutch","m3zwlxsyg12ocuq","{""user_agent"":""Mozilla/5.0 (Macintosh; Intel Mac OS X 10_15_7) AppleWebKit/537.36 (KHTML, like Gecko) Chrome/94.0.4606.61 Safari/537.36"",""on_chrome"":true,""on_mobile"":false,""language"":""nl-NL"",""screen_resolution"":[1440,900],""platform"":""MacIntel"",""timezone"":""Europe/Amsterdam""}","","","","1632921547332","42","","","honour","null","false","","","0.35","1","3","0.2","filler","F","","","honour","0.9473908543586731","[object SpeechRecognitionResultList]"
"1185","","html-speech-API-response","130","426320","0.0-4.126-0.126","6","dutch","m3zwlxsyg12ocuq","{""user_agent"":""Mozilla/5.0 (Macintosh; Intel Mac OS X 10_15_7) AppleWebKit/537.36 (KHTML, like Gecko) Chrome/94.0.4606.61 Safari/537.36"",""on_chrome"":true,""on_mobile"":false,""language"":""nl-NL"",""screen_resolution"":[1440,900],""platform"":""MacIntel"",""timezone"":""Europe/Amsterdam""}","","","","1632921550670","43","","","enemy","null","true","","","0.35","1","3","0.2","filler","F","","","anime","0.857947587966919","[object SpeechRecognitionResultList]"
"907","","html-speech-API-response","131","429719","0.0-4.127-0.127","6","dutch","m3zwlxsyg12ocuq","{""user_agent"":""Mozilla/5.0 (Macintosh; Intel Mac OS X 10_15_7) AppleWebKit/537.36 (KHTML, like Gecko) Chrome/94.0.4606.61 Safari/537.36"",""on_chrome"":true,""on_mobile"":false,""language"":""nl-NL"",""screen_resolution"":[1440,900],""platform"":""MacIntel"",""timezone"":""Europe/Amsterdam""}","","","","1632921554340","43","","","enemy","null","false","","","0.35","1","3","0.2","filler","F","","","anime","0.9546766877174377","[object SpeechRecognitionResultList]"
"1092","","html-speech-API-response","132","433071","0.0-4.128-0.128","6","dutch","m3zwlxsyg12ocuq","{""user_agent"":""Mozilla/5.0 (Macintosh; Intel Mac OS X 10_15_7) AppleWebKit/537.36 (KHTML, like Gecko) Chrome/94.0.4606.61 Safari/537.36"",""on_chrome"":true,""on_mobile"":false,""language"":""nl-NL"",""screen_resolution"":[1440,900],""platform"":""MacIntel"",""timezone"":""Europe/Amsterdam""}","","","","1632921557739","43","","","enemy","null","false","","","0.35","1","3","0.2","filler","F","","","enemy","0.7513278126716614","[object SpeechRecognitionResultList]"
"1280","","html-speech-API-response","133","436786","0.0-4.129-0.129","6","dutch","m3zwlxsyg12ocuq","{""user_agent"":""Mozilla/5.0 (Macintosh; Intel Mac OS X 10_15_7) AppleWebKit/537.36 (KHTML, like Gecko) Chrome/94.0.4606.61 Safari/537.36"",""on_chrome"":true,""on_mobile"":false,""language"":""nl-NL"",""screen_resolution"":[1440,900],""platform"":""MacIntel"",""timezone"":""Europe/Amsterdam""}","","","","1632921561091","44","","","garden","null","true","","","0.35","1","3","0.2","filler","F","","","garden","0.8689374923706055","[object SpeechRecognitionResultList]"
"1277","","html-speech-API-response","134","440544","0.0-4.130-0.130","6","dutch","m3zwlxsyg12ocuq","{""user_agent"":""Mozilla/5.0 (Macintosh; Intel Mac OS X 10_15_7) AppleWebKit/537.36 (KHTML, like Gecko) Chrome/94.0.4606.61 Safari/537.36"",""on_chrome"":true,""on_mobile"":false,""language"":""nl-NL"",""screen_resolution"":[1440,900],""platform"":""MacIntel"",""timezone"":""Europe/Amsterdam""}","","","","1632921564805","44","","","garden","null","false","","","0.35","1","3","0.2","filler","F","","","garden","0.8599722385406494","[object SpeechRecognitionResultList]"
"1091","","html-speech-API-response","135","444275","0.0-4.131-0.131","6","dutch","m3zwlxsyg12ocuq","{""user_agent"":""Mozilla/5.0 (Macintosh; Intel Mac OS X 10_15_7) AppleWebKit/537.36 (KHTML, like Gecko) Chrome/94.0.4606.61 Safari/537.36"",""on_chrome"":true,""on_mobile"":false,""language"":""nl-NL"",""screen_resolution"":[1440,900],""platform"":""MacIntel"",""timezone"":""Europe/Amsterdam""}","","","","1632921568564","44","","","garden","null","false","","","0.35","1","3","0.2","filler","F","","","garden","0.8708515167236328","[object SpeechRecognitionResultList]"
"1185","","html-speech-API-response","136","447910","0.0-4.132-0.132","6","dutch","m3zwlxsyg12ocuq","{""user_agent"":""Mozilla/5.0 (Macintosh; Intel Mac OS X 10_15_7) AppleWebKit/537.36 (KHTML, like Gecko) Chrome/94.0.4606.61 Safari/537.36"",""on_chrome"":true,""on_mobile"":false,""language"":""nl-NL"",""screen_resolution"":[1440,900],""platform"":""MacIntel"",""timezone"":""Europe/Amsterdam""}","","","","1632921572295","45","","","treasure","null","true","","","0.35","1","3","0.2","filler","F","","","treasure","0.8424365520477295","[object SpeechRecognitionResultList]"
"908","","html-speech-API-response","137","451234","0.0-4.133-0.133","6","dutch","m3zwlxsyg12ocuq","{""user_agent"":""Mozilla/5.0 (Macintosh; Intel Mac OS X 10_15_7) AppleWebKit/537.36 (KHTML, like Gecko) Chrome/94.0.4606.61 Safari/537.36"",""on_chrome"":true,""on_mobile"":false,""language"":""nl-NL"",""screen_resolution"":[1440,900],""platform"":""MacIntel"",""timezone"":""Europe/Amsterdam""}","","","","1632921575929","45","","","treasure","null","false","","","0.35","1","3","0.2","filler","F","","","treasure","0.8424347639083862","[object SpeechRecognitionResultList]"
"1277","","html-speech-API-response","138","454924","0.0-4.134-0.134","6","dutch","m3zwlxsyg12ocuq","{""user_agent"":""Mozilla/5.0 (Macintosh; Intel Mac OS X 10_15_7) AppleWebKit/537.36 (KHTML, like Gecko) Chrome/94.0.4606.61 Safari/537.36"",""on_chrome"":true,""on_mobile"":false,""language"":""nl-NL"",""screen_resolution"":[1440,900],""platform"":""MacIntel"",""timezone"":""Europe/Amsterdam""}","","","","1632921579254","45","","","treasure","null","false","","","0.35","1","3","0.2","filler","F","","","treasure","0.8424348831176758","[object SpeechRecognitionResultList]"
"1092","","html-speech-API-response","139","458533","0.0-4.135-0.135","6","dutch","m3zwlxsyg12ocuq","{""user_agent"":""Mozilla/5.0 (Macintosh; Intel Mac OS X 10_15_7) AppleWebKit/537.36 (KHTML, like Gecko) Chrome/94.0.4606.61 Safari/537.36"",""on_chrome"":true,""on_mobile"":false,""language"":""nl-NL"",""screen_resolution"":[1440,900],""platform"":""MacIntel"",""timezone"":""Europe/Amsterdam""}","","","","1632921582944","46","","","mango","null","true","","","0.35","1","3","0.2","filler","F","","","mango","0.9546766877174377","[object SpeechRecognitionResultList]"
"999","","html-speech-API-response","140","462033","0.0-4.136-0.136","6","dutch","m3zwlxsyg12ocuq","{""user_agent"":""Mozilla/5.0 (Macintosh; Intel Mac OS X 10_15_7) AppleWebKit/537.36 (KHTML, like Gecko) Chrome/94.0.4606.61 Safari/537.36"",""on_chrome"":true,""on_mobile"":false,""language"":""nl-NL"",""screen_resolution"":[1440,900],""platform"":""MacIntel"",""timezone"":""Europe/Amsterdam""}","","","","1632921586553","46","","","mango","null","false","","","0.35","1","3","0.2","filler","F","","","mango","0.9546766877174377","[object SpeechRecognitionResultList]"
"1277","","html-speech-API-response","141","465736","0.0-4.137-0.137","6","dutch","m3zwlxsyg12ocuq","{""user_agent"":""Mozilla/5.0 (Macintosh; Intel Mac OS X 10_15_7) AppleWebKit/537.36 (KHTML, like Gecko) Chrome/94.0.4606.61 Safari/537.36"",""on_chrome"":true,""on_mobile"":false,""language"":""nl-NL"",""screen_resolution"":[1440,900],""platform"":""MacIntel"",""timezone"":""Europe/Amsterdam""}","","","","1632921590052","46","","","mango","null","false","","","0.35","1","3","0.2","filler","F","","","mango","0.8795510530471802","[object SpeechRecognitionResultList]"
"1218","","html-speech-API-response","142","469282","0.0-4.138-0.138","6","dutch","m3zwlxsyg12ocuq","{""user_agent"":""Mozilla/5.0 (Macintosh; Intel Mac OS X 10_15_7) AppleWebKit/537.36 (KHTML, like Gecko) Chrome/94.0.4606.61 Safari/537.36"",""on_chrome"":true,""on_mobile"":false,""language"":""nl-NL"",""screen_resolution"":[1440,900],""platform"":""MacIntel"",""timezone"":""Europe/Amsterdam""}","","","","1632921593755","47","","","prophet","null","true","","","0.35","1","3","0.2","filler","F","","","profit","0.8029223680496216","[object SpeechRecognitionResultList]"
"1186","","html-speech-API-response","143","472874","0.0-4.139-0.139","6","dutch","m3zwlxsyg12ocuq","{""user_agent"":""Mozilla/5.0 (Macintosh; Intel Mac OS X 10_15_7) AppleWebKit/537.36 (KHTML, like Gecko) Chrome/94.0.4606.61 Safari/537.36"",""on_chrome"":true,""on_mobile"":false,""language"":""nl-NL"",""screen_resolution"":[1440,900],""platform"":""MacIntel"",""timezone"":""Europe/Amsterdam""}","","","","1632921597302","47","","","prophet","null","false","","","0.35","1","3","0.2","filler","F","","","profit","0.8013970255851746","[object SpeechRecognitionResultList]"
"1184","","html-speech-API-response","144","476429","0.0-4.140-0.140","6","dutch","m3zwlxsyg12ocuq","{""user_agent"":""Mozilla/5.0 (Macintosh; Intel Mac OS X 10_15_7) AppleWebKit/537.36 (KHTML, like Gecko) Chrome/94.0.4606.61 Safari/537.36"",""on_chrome"":true,""on_mobile"":false,""language"":""nl-NL"",""screen_resolution"":[1440,900],""platform"":""MacIntel"",""timezone"":""Europe/Amsterdam""}","","","","1632921600894","47","","","prophet","null","false","","","0.35","1","3","0.2","filler","F","","","profit","0.8029223680496216","[object SpeechRecognitionResultList]"
"1183","","html-speech-API-response","145","480065","0.0-4.141-0.141","6","dutch","m3zwlxsyg12ocuq","{""user_agent"":""Mozilla/5.0 (Macintosh; Intel Mac OS X 10_15_7) AppleWebKit/537.36 (KHTML, like Gecko) Chrome/94.0.4606.61 Safari/537.36"",""on_chrome"":true,""on_mobile"":false,""language"":""nl-NL"",""screen_resolution"":[1440,900],""platform"":""MacIntel"",""timezone"":""Europe/Amsterdam""}","","","","1632921604448","48","","","lung","null","true","","","0.35","1","3","0.2","filler","F","","","learn","0.7592597603797913","[object SpeechRecognitionResultList]"
"1091","","html-speech-API-response","146","483542","0.0-4.142-0.142","6","dutch","m3zwlxsyg12ocuq","{""user_agent"":""Mozilla/5.0 (Macintosh; Intel Mac OS X 10_15_7) AppleWebKit/537.36 (KHTML, like Gecko) Chrome/94.0.4606.61 Safari/537.36"",""on_chrome"":true,""on_mobile"":false,""language"":""nl-NL"",""screen_resolution"":[1440,900],""platform"":""MacIntel"",""timezone"":""Europe/Amsterdam""}","","","","1632921608083","48","","","lung","null","false","","","0.35","1","3","0.2","filler","F","","","long","0.8716526627540588","[object SpeechRecognitionResultList]"
"999","","html-speech-API-response","147","487192","0.0-4.143-0.143","6","dutch","m3zwlxsyg12ocuq","{""user_agent"":""Mozilla/5.0 (Macintosh; Intel Mac OS X 10_15_7) AppleWebKit/537.36 (KHTML, like Gecko) Chrome/94.0.4606.61 Safari/537.36"",""on_chrome"":true,""on_mobile"":false,""language"":""nl-NL"",""screen_resolution"":[1440,900],""platform"":""MacIntel"",""timezone"":""Europe/Amsterdam""}","","","","1632921611561","48","","","lung","null","false","","","0.35","1","3","0.2","filler","F","","","long","0.8103863000869751","[object SpeechRecognitionResultList]"
"1201","","html-speech-API-response","148","490782","0.0-4.144-0.144","6","dutch","m3zwlxsyg12ocuq","{""user_agent"":""Mozilla/5.0 (Macintosh; Intel Mac OS X 10_15_7) AppleWebKit/537.36 (KHTML, like Gecko) Chrome/94.0.4606.61 Safari/537.36"",""on_chrome"":true,""on_mobile"":false,""language"":""nl-NL"",""screen_resolution"":[1440,900],""platform"":""MacIntel"",""timezone"":""Europe/Amsterdam""}","","","","1632921615212","49","","","cotton","null","true","","","0.35","1","3","0.2","filler","F","","","garden","0.8386319279670715","[object SpeechRecognitionResultList]"
"1092","","html-speech-API-response","149","494226","0.0-4.145-0.145","6","dutch","m3zwlxsyg12ocuq","{""user_agent"":""Mozilla/5.0 (Macintosh; Intel Mac OS X 10_15_7) AppleWebKit/537.36 (KHTML, like Gecko) Chrome/94.0.4606.61 Safari/537.36"",""on_chrome"":true,""on_mobile"":false,""language"":""nl-NL"",""screen_resolution"":[1440,900],""platform"":""MacIntel"",""timezone"":""Europe/Amsterdam""}","","","","1632921618801","49","","","cotton","null","false","","","0.35","1","3","0.2","filler","F","","","garden","0.8313633799552917","[object SpeechRecognitionResultList]"
"1186","","html-speech-API-response","150","497740","0.0-4.146-0.146","6","dutch","m3zwlxsyg12ocuq","{""user_agent"":""Mozilla/5.0 (Macintosh; Intel Mac OS X 10_15_7) AppleWebKit/537.36 (KHTML, like Gecko) Chrome/94.0.4606.61 Safari/537.36"",""on_chrome"":true,""on_mobile"":false,""language"":""nl-NL"",""screen_resolution"":[1440,900],""platform"":""MacIntel"",""timezone"":""Europe/Amsterdam""}","","","","1632921622245","49","","","cotton","null","false","","","0.35","1","3","0.2","filler","F","","","God's on","0.7584652304649353","[object SpeechRecognitionResultList]"
"1186","","html-speech-API-response","151","501487","0.0-4.147-0.147","6","dutch","m3zwlxsyg12ocuq","{""user_agent"":""Mozilla/5.0 (Macintosh; Intel Mac OS X 10_15_7) AppleWebKit/537.36 (KHTML, like Gecko) Chrome/94.0.4606.61 Safari/537.36"",""on_chrome"":true,""on_mobile"":false,""language"":""nl-NL"",""screen_resolution"":[1440,900],""platform"":""MacIntel"",""timezone"":""Europe/Amsterdam""}","","","","1632921625760","50","","","manure","null","true","","","0.35","1","3","0.2","filler","F","","","manure","0.9546766877174377","[object SpeechRecognitionResultList]"
"999","","html-speech-API-response","152","505098","0.0-4.148-0.148","6","dutch","m3zwlxsyg12ocuq","{""user_agent"":""Mozilla/5.0 (Macintosh; Intel Mac OS X 10_15_7) AppleWebKit/537.36 (KHTML, like Gecko) Chrome/94.0.4606.61 Safari/537.36"",""on_chrome"":true,""on_mobile"":false,""language"":""nl-NL"",""screen_resolution"":[1440,900],""platform"":""MacIntel"",""timezone"":""Europe/Amsterdam""}","","","","1632921629507","50","","","manure","null","false","","","0.35","1","3","0.2","filler","F","","","manure","0.9546766877174377","[object SpeechRecognitionResultList]"
"906","","html-speech-API-response","153","508498","0.0-4.149-0.149","6","dutch","m3zwlxsyg12ocuq","{""user_agent"":""Mozilla/5.0 (Macintosh; Intel Mac OS X 10_15_7) AppleWebKit/537.36 (KHTML, like Gecko) Chrome/94.0.4606.61 Safari/537.36"",""on_chrome"":true,""on_mobile"":false,""language"":""nl-NL"",""screen_resolution"":[1440,900],""platform"":""MacIntel"",""timezone"":""Europe/Amsterdam""}","","","","1632921633116","50","","","manure","null","false","","","0.35","1","3","0.2","filler","F","","","manure","0.9546766877174377","[object SpeechRecognitionResultList]"
"1187","","html-speech-API-response","154","512181","0.0-4.150-0.150","6","dutch","m3zwlxsyg12ocuq","{""user_agent"":""Mozilla/5.0 (Macintosh; Intel Mac OS X 10_15_7) AppleWebKit/537.36 (KHTML, like Gecko) Chrome/94.0.4606.61 Safari/537.36"",""on_chrome"":true,""on_mobile"":false,""language"":""nl-NL"",""screen_resolution"":[1440,900],""platform"":""MacIntel"",""timezone"":""Europe/Amsterdam""}","","","","1632921636517","51","","","sailor","null","true","","","0.35","1","3","0.2","filler","F","","","sailor","0.9546766877174377","[object SpeechRecognitionResultList]"
"1000","","html-speech-API-response","155","515725","0.0-4.151-0.151","6","dutch","m3zwlxsyg12ocuq","{""user_agent"":""Mozilla/5.0 (Macintosh; Intel Mac OS X 10_15_7) AppleWebKit/537.36 (KHTML, like Gecko) Chrome/94.0.4606.61 Safari/537.36"",""on_chrome"":true,""on_mobile"":false,""language"":""nl-NL"",""screen_resolution"":[1440,900],""platform"":""MacIntel"",""timezone"":""Europe/Amsterdam""}","","","","1632921640201","51","","","sailor","null","false","","","0.35","1","3","0.2","filler","F","","","sailor","0.9546766877174377","[object SpeechRecognitionResultList]"
"907","","html-speech-API-response","156","519101","0.0-4.152-0.152","6","dutch","m3zwlxsyg12ocuq","{""user_agent"":""Mozilla/5.0 (Macintosh; Intel Mac OS X 10_15_7) AppleWebKit/537.36 (KHTML, like Gecko) Chrome/94.0.4606.61 Safari/537.36"",""on_chrome"":true,""on_mobile"":false,""language"":""nl-NL"",""screen_resolution"":[1440,900],""platform"":""MacIntel"",""timezone"":""Europe/Amsterdam""}","","","","1632921643745","51","","","sailor","null","false","","","0.35","1","3","0.2","filler","F","","","sailor","0.9546766877174377","[object SpeechRecognitionResultList]"
"1187","","html-speech-API-response","157","522889","0.0-4.153-0.153","6","dutch","m3zwlxsyg12ocuq","{""user_agent"":""Mozilla/5.0 (Macintosh; Intel Mac OS X 10_15_7) AppleWebKit/537.36 (KHTML, like Gecko) Chrome/94.0.4606.61 Safari/537.36"",""on_chrome"":true,""on_mobile"":false,""language"":""nl-NL"",""screen_resolution"":[1440,900],""platform"":""MacIntel"",""timezone"":""Europe/Amsterdam""}","","","","1632921647121","52","","","society","null","true","","","0.35","1","3","0.2","filler","F","","","Society","0.8412837386131287","[object SpeechRecognitionResultList]"
"1001","","html-speech-API-response","158","526519","0.0-4.154-0.154","6","dutch","m3zwlxsyg12ocuq","{""user_agent"":""Mozilla/5.0 (Macintosh; Intel Mac OS X 10_15_7) AppleWebKit/537.36 (KHTML, like Gecko) Chrome/94.0.4606.61 Safari/537.36"",""on_chrome"":true,""on_mobile"":false,""language"":""nl-NL"",""screen_resolution"":[1440,900],""platform"":""MacIntel"",""timezone"":""Europe/Amsterdam""}","","","","1632921650909","52","","","society","null","false","","","0.35","1","3","0.2","filler","F","","","Society","0.8412837386131287","[object SpeechRecognitionResultList]"
"906","","html-speech-API-response","159","530081","0.0-4.155-0.155","6","dutch","m3zwlxsyg12ocuq","{""user_agent"":""Mozilla/5.0 (Macintosh; Intel Mac OS X 10_15_7) AppleWebKit/537.36 (KHTML, like Gecko) Chrome/94.0.4606.61 Safari/537.36"",""on_chrome"":true,""on_mobile"":false,""language"":""nl-NL"",""screen_resolution"":[1440,900],""platform"":""MacIntel"",""timezone"":""Europe/Amsterdam""}","","","","1632921654539","52","","","society","null","false","","","0.35","1","3","0.2","filler","F","","","Society","0.8412843346595764","[object SpeechRecognitionResultList]"
"1090","","html-speech-API-response","160","533531","0.0-4.156-0.156","6","dutch","m3zwlxsyg12ocuq","{""user_agent"":""Mozilla/5.0 (Macintosh; Intel Mac OS X 10_15_7) AppleWebKit/537.36 (KHTML, like Gecko) Chrome/94.0.4606.61 Safari/537.36"",""on_chrome"":true,""on_mobile"":false,""language"":""nl-NL"",""screen_resolution"":[1440,900],""platform"":""MacIntel"",""timezone"":""Europe/Amsterdam""}","","","","1632921658099","53","","","leaf","null","true","","","0.35","1","3","0.2","filler","F","","","leaf","0.805761456489563","[object SpeechRecognitionResultList]"
"1093","","html-speech-API-response","161","537022","0.0-4.157-0.157","6","dutch","m3zwlxsyg12ocuq","{""user_agent"":""Mozilla/5.0 (Macintosh; Intel Mac OS X 10_15_7) AppleWebKit/537.36 (KHTML, like Gecko) Chrome/94.0.4606.61 Safari/537.36"",""on_chrome"":true,""on_mobile"":false,""language"":""nl-NL"",""screen_resolution"":[1440,900],""platform"":""MacIntel"",""timezone"":""Europe/Amsterdam""}","","","","1632921661551","53","","","leaf","null","false","","","0.35","1","3","0.2","filler","F","","","leave","0.8333866596221924","[object SpeechRecognitionResultList]"
"907","","html-speech-API-response","162","540284","0.0-4.158-0.158","6","dutch","m3zwlxsyg12ocuq","{""user_agent"":""Mozilla/5.0 (Macintosh; Intel Mac OS X 10_15_7) AppleWebKit/537.36 (KHTML, like Gecko) Chrome/94.0.4606.61 Safari/537.36"",""on_chrome"":true,""on_mobile"":false,""language"":""nl-NL"",""screen_resolution"":[1440,900],""platform"":""MacIntel"",""timezone"":""Europe/Amsterdam""}","","","","1632921665042","53","","","leaf","null","false","","","0.35","1","3","0.2","filler","F","","","leave","0.7991046905517578","[object SpeechRecognitionResultList]"
"1186","","html-speech-API-response","163","543875","0.0-4.159-0.159","6","dutch","m3zwlxsyg12ocuq","{""user_agent"":""Mozilla/5.0 (Macintosh; Intel Mac OS X 10_15_7) AppleWebKit/537.36 (KHTML, like Gecko) Chrome/94.0.4606.61 Safari/537.36"",""on_chrome"":true,""on_mobile"":false,""language"":""nl-NL"",""screen_resolution"":[1440,900],""platform"":""MacIntel"",""timezone"":""Europe/Amsterdam""}","","","","1632921668304","54","","","frog","null","true","","","0.35","1","3","0.2","filler","F","","","frog","0.7375051379203796","[object SpeechRecognitionResultList]"
"906","","html-speech-API-response","164","547270","0.0-4.160-0.160","6","dutch","m3zwlxsyg12ocuq","{""user_agent"":""Mozilla/5.0 (Macintosh; Intel Mac OS X 10_15_7) AppleWebKit/537.36 (KHTML, like Gecko) Chrome/94.0.4606.61 Safari/537.36"",""on_chrome"":true,""on_mobile"":false,""language"":""nl-NL"",""screen_resolution"":[1440,900],""platform"":""MacIntel"",""timezone"":""Europe/Amsterdam""}","","","","1632921671895","54","","","frog","null","false","","","0.35","1","3","0.2","filler","F","","","frog","0.7414107322692871","[object SpeechRecognitionResultList]"
"1002","","html-speech-API-response","165","550703","0.0-4.161-0.161","6","dutch","m3zwlxsyg12ocuq","{""user_agent"":""Mozilla/5.0 (Macintosh; Intel Mac OS X 10_15_7) AppleWebKit/537.36 (KHTML, like Gecko) Chrome/94.0.4606.61 Safari/537.36"",""on_chrome"":true,""on_mobile"":false,""language"":""nl-NL"",""screen_resolution"":[1440,900],""platform"":""MacIntel"",""timezone"":""Europe/Amsterdam""}","","","","1632921675289","54","","","frog","null","false","","","0.35","1","3","0.2","filler","F","","","frog","0.7383571863174438","[object SpeechRecognitionResultList]"
"1185","","html-speech-API-response","166","554207","0.0-4.162-0.162","6","dutch","m3zwlxsyg12ocuq","{""user_agent"":""Mozilla/5.0 (Macintosh; Intel Mac OS X 10_15_7) AppleWebKit/537.36 (KHTML, like Gecko) Chrome/94.0.4606.61 Safari/537.36"",""on_chrome"":true,""on_mobile"":false,""language"":""nl-NL"",""screen_resolution"":[1440,900],""platform"":""MacIntel"",""timezone"":""Europe/Amsterdam""}","","","","1632921678724","55","","","almond","null","true","","","0.35","1","3","0.2","filler","F","","","almond","0.9546766877174377","[object SpeechRecognitionResultList]"
"1000","","html-speech-API-response","167","557564","0.0-4.163-0.163","6","dutch","m3zwlxsyg12ocuq","{""user_agent"":""Mozilla/5.0 (Macintosh; Intel Mac OS X 10_15_7) AppleWebKit/537.36 (KHTML, like Gecko) Chrome/94.0.4606.61 Safari/537.36"",""on_chrome"":true,""on_mobile"":false,""language"":""nl-NL"",""screen_resolution"":[1440,900],""platform"":""MacIntel"",""timezone"":""Europe/Amsterdam""}","","","","1632921682226","55","","","almond","null","false","","","0.35","1","3","0.2","filler","F","","","almond","0.8136493563652039","[object SpeechRecognitionResultList]"
"906","","html-speech-API-response","168","560932","0.0-4.164-0.164","6","dutch","m3zwlxsyg12ocuq","{""user_agent"":""Mozilla/5.0 (Macintosh; Intel Mac OS X 10_15_7) AppleWebKit/537.36 (KHTML, like Gecko) Chrome/94.0.4606.61 Safari/537.36"",""on_chrome"":true,""on_mobile"":false,""language"":""nl-NL"",""screen_resolution"":[1440,900],""platform"":""MacIntel"",""timezone"":""Europe/Amsterdam""}","","","","1632921685584","55","","","almond","null","false","","","0.35","1","3","0.2","filler","F","","","almond","0.9546766877174377","[object SpeechRecognitionResultList]"
"1092","","html-speech-API-response","169","564274","0.0-4.165-0.165","6","dutch","m3zwlxsyg12ocuq","{""user_agent"":""Mozilla/5.0 (Macintosh; Intel Mac OS X 10_15_7) AppleWebKit/537.36 (KHTML, like Gecko) Chrome/94.0.4606.61 Safari/537.36"",""on_chrome"":true,""on_mobile"":false,""language"":""nl-NL"",""screen_resolution"":[1440,900],""platform"":""MacIntel"",""timezone"":""Europe/Amsterdam""}","","","","1632921688952","56","","","yoke","null","true","","","0.35","1","3","0.2","filler","F","","","yoke","0.7449843287467957","[object SpeechRecognitionResultList]"
"998","","html-speech-API-response","170","567497","0.0-4.166-0.166","6","dutch","m3zwlxsyg12ocuq","{""user_agent"":""Mozilla/5.0 (Macintosh; Intel Mac OS X 10_15_7) AppleWebKit/537.36 (KHTML, like Gecko) Chrome/94.0.4606.61 Safari/537.36"",""on_chrome"":true,""on_mobile"":false,""language"":""nl-NL"",""screen_resolution"":[1440,900],""platform"":""MacIntel"",""timezone"":""Europe/Amsterdam""}","","","","1632921692293","56","","","yoke","null","false","","","0.35","1","3","0.2","filler","F","","","yoke","0.7435579299926758","[object SpeechRecognitionResultList]"
"2477","","html-speech-API-response","171","570989","0.0-4.167-0.167","6","dutch","m3zwlxsyg12ocuq","{""user_agent"":""Mozilla/5.0 (Macintosh; Intel Mac OS X 10_15_7) AppleWebKit/537.36 (KHTML, like Gecko) Chrome/94.0.4606.61 Safari/537.36"",""on_chrome"":true,""on_mobile"":false,""language"":""nl-NL"",""screen_resolution"":[1440,900],""platform"":""MacIntel"",""timezone"":""Europe/Amsterdam""}","","","","1632921695517","56","","","yoke","null","false","","","0.35","1","3","0.2","filler","F","","","yoke","0.7013446092605591","[object SpeechRecognitionResultList]"
"1285","","html-speech-API-response","172","574583","0.0-4.168-0.168","6","dutch","m3zwlxsyg12ocuq","{""user_agent"":""Mozilla/5.0 (Macintosh; Intel Mac OS X 10_15_7) AppleWebKit/537.36 (KHTML, like Gecko) Chrome/94.0.4606.61 Safari/537.36"",""on_chrome"":true,""on_mobile"":false,""language"":""nl-NL"",""screen_resolution"":[1440,900],""platform"":""MacIntel"",""timezone"":""Europe/Amsterdam""}","","","","1632921699008","57","","","agent","null","true","","","0.35","1","3","0.2","filler","F","","","agent","0.8361223340034485","[object SpeechRecognitionResultList]"
"1187","","html-speech-API-response","173","578076","0.0-4.169-0.169","6","dutch","m3zwlxsyg12ocuq","{""user_agent"":""Mozilla/5.0 (Macintosh; Intel Mac OS X 10_15_7) AppleWebKit/537.36 (KHTML, like Gecko) Chrome/94.0.4606.61 Safari/537.36"",""on_chrome"":true,""on_mobile"":false,""language"":""nl-NL"",""screen_resolution"":[1440,900],""platform"":""MacIntel"",""timezone"":""Europe/Amsterdam""}","","","","1632921702604","57","","","agent","null","false","","","0.35","1","3","0.2","filler","F","","","agent","0.8362532258033752","[object SpeechRecognitionResultList]"
